"STUDYID","DOMAIN","USUBJID","AESEQ","AESPID","AETERM","AELLT","AELLTCD","AEDECOD","AEPTCD","AEHLT","AEHLTCD","AEHLGT","AEHLGTCD","AEBODSYS","AEBDSYCD","AESOC","AESOCCD","AESEV","AESER","AEACN","AEREL","AEOUT","AESCAN","AESCONG","AESDISAB","AESDTH","AESHOSP","AESLIFE","AESOD","AEDTC","AESTDTC","AEENDTC","AESTDY","AEENDY","AEID"
"CDISCPILOT01","AE","01-701-1015",1,"E07","APPLICATION SITE ERYTHEMA","APPLICATION SITE REDNESS",NA,"APPLICATION SITE ERYTHEMA",NA,"HLT_0617",NA,"HLGT_0152",NA,"GENERAL DISORDERS AND ADMINISTRATION SITE CONDITIONS",NA,"GENERAL DISORDERS AND ADMINISTRATION SITE CONDITIONS",NA,"MILD","N",NA,"PROBABLE","NOT RECOVERED/NOT RESOLVED","N","N","N","N","N","N","N","2014-01-16","2014-01-03",NA,2,NA,"01-701-1015_1"
"CDISCPILOT01","AE","01-701-1015",2,"E08","APPLICATION SITE PRURITUS","APPLICATION SITE ITCHING",NA,"APPLICATION SITE PRURITUS",NA,"HLT_0317",NA,"HLGT_0338",NA,"GENERAL DISORDERS AND ADMINISTRATION SITE CONDITIONS",NA,"GENERAL DISORDERS AND ADMINISTRATION SITE CONDITIONS",NA,"MILD","N",NA,"PROBABLE","NOT RECOVERED/NOT RESOLVED","N","N","N","N","N","N","N","2014-01-16","2014-01-03",NA,2,NA,"01-701-1015_2"
"CDISCPILOT01","AE","01-701-1015",3,"E06","DIARRHOEA","DIARRHEA",NA,"DIARRHOEA",NA,"HLT_0148",NA,"HLGT_0588",NA,"GASTROINTESTINAL DISORDERS",NA,"GASTROINTESTINAL DISORDERS",NA,"MILD","N",NA,"REMOTE","RECOVERED/RESOLVED","N","N","N","N","N","N","N","2014-01-16","2014-01-09","2014-01-11",8,10,"01-701-1015_3"
"CDISCPILOT01","AE","01-701-1023",3,"E10","ATRIOVENTRICULAR BLOCK SECOND DEGREE","AV BLOCK SECOND DEGREE",NA,"ATRIOVENTRICULAR BLOCK SECOND DEGREE",NA,"HLT_0415",NA,"HLGT_0086",NA,"CARDIAC DISORDERS",NA,"CARDIAC DISORDERS",NA,"MILD","N",NA,"POSSIBLE","NOT RECOVERED/NOT RESOLVED","N","N","N","N","N","N","N","2012-08-27","2012-08-26",NA,22,NA,"01-701-1023_3"
"CDISCPILOT01","AE","01-701-1023",1,"E08","ERYTHEMA","ERYTHEMA",NA,"ERYTHEMA",NA,"HLT_0284",NA,"HLGT_0192",NA,"SKIN AND SUBCUTANEOUS TISSUE DISORDERS",NA,"SKIN AND SUBCUTANEOUS TISSUE DISORDERS",NA,"MILD","N",NA,"POSSIBLE","NOT RECOVERED/NOT RESOLVED","N","N","N","N","N","N","N","2012-08-27","2012-08-07","2012-08-30",3,26,"01-701-1023_1"
"CDISCPILOT01","AE","01-701-1023",2,"E09","ERYTHEMA","LOCALIZED ERYTHEMA",NA,"ERYTHEMA",NA,"HLT_0284",NA,"HLGT_0192",NA,"SKIN AND SUBCUTANEOUS TISSUE DISORDERS",NA,"SKIN AND SUBCUTANEOUS TISSUE DISORDERS",NA,"MODERATE","N",NA,"PROBABLE","NOT RECOVERED/NOT RESOLVED","N","N","N","N","N","N","N","2012-08-27","2012-08-07",NA,3,NA,"01-701-1023_2"
"CDISCPILOT01","AE","01-701-1023",4,"E08","ERYTHEMA","ERYTHEMA",NA,"ERYTHEMA",NA,"HLT_0284",NA,"HLGT_0192",NA,"SKIN AND SUBCUTANEOUS TISSUE DISORDERS",NA,"SKIN AND SUBCUTANEOUS TISSUE DISORDERS",NA,"MILD","N",NA,"POSSIBLE","RECOVERED/RESOLVED","N","N","N","N","N","N","N","2012-09-02","2012-08-07","2012-08-30",3,26,"01-701-1023_4"
"CDISCPILOT01","AE","01-701-1028",1,"E04","APPLICATION SITE ERYTHEMA","APPLICATION SITE ERYTHEMA",NA,"APPLICATION SITE ERYTHEMA",NA,"HLT_0617",NA,"HLGT_0152",NA,"GENERAL DISORDERS AND ADMINISTRATION SITE CONDITIONS",NA,"GENERAL DISORDERS AND ADMINISTRATION SITE CONDITIONS",NA,"MILD","N",NA,"POSSIBLE","NOT RECOVERED/NOT RESOLVED","N","N","N","N","N","N","N","2013-08-01","2013-07-21",NA,3,NA,"01-701-1028_1"
"CDISCPILOT01","AE","01-701-1028",2,"E05","APPLICATION SITE PRURITUS","APPLICATION SITE ITCHING",NA,"APPLICATION SITE PRURITUS",NA,"HLT_0317",NA,"HLGT_0338",NA,"GENERAL DISORDERS AND ADMINISTRATION SITE CONDITIONS",NA,"GENERAL DISORDERS AND ADMINISTRATION SITE CONDITIONS",NA,"MILD","N",NA,"PROBABLE","NOT RECOVERED/NOT RESOLVED","N","N","N","N","N","N","N","2013-08-14","2013-08-08",NA,21,NA,"01-701-1028_2"
"CDISCPILOT01","AE","01-701-1034",1,"E08","APPLICATION SITE PRURITUS","APPLICATION SITE ITCHING",NA,"APPLICATION SITE PRURITUS",NA,"HLT_0317",NA,"HLGT_0338",NA,"GENERAL DISORDERS AND ADMINISTRATION SITE CONDITIONS",NA,"GENERAL DISORDERS AND ADMINISTRATION SITE CONDITIONS",NA,"MILD","N",NA,"PROBABLE","NOT RECOVERED/NOT RESOLVED","N","N","N","N","N","N","N","2014-09-25","2014-08-27",NA,58,NA,"01-701-1034_1"
"CDISCPILOT01","AE","01-701-1034",2,"E07","FATIGUE","FATIGUE",NA,"FATIGUE",NA,"HLT_0043",NA,"HLGT_0181",NA,"GENERAL DISORDERS AND ADMINISTRATION SITE CONDITIONS",NA,"GENERAL DISORDERS AND ADMINISTRATION SITE CONDITIONS",NA,"MILD","N",NA,"POSSIBLE","NOT RECOVERED/NOT RESOLVED","N","N","N","N","N","N","N","2014-11-18","2014-11-02",NA,125,NA,"01-701-1034_2"
"CDISCPILOT01","AE","01-701-1047",4,"E09","BUNDLE BRANCH BLOCK LEFT","LEFT BUNDLE BRANCH BLOCK",NA,"BUNDLE BRANCH BLOCK LEFT",NA,"HLT_0281",NA,"HLGT_0721",NA,"CARDIAC DISORDERS",NA,"CARDIAC DISORDERS",NA,"MILD","N",NA,"NONE","NOT RECOVERED/NOT RESOLVED","N","N","N","N","N","N","N","2013-03-10","2013-03-10",NA,27,NA,"01-701-1047_4"
"CDISCPILOT01","AE","01-701-1047",1,"E06","HIATUS HERNIA","HERNIA HIATAL",NA,"HIATUS HERNIA",NA,"HLT_0159",NA,"HLGT_0109",NA,"GASTROINTESTINAL DISORDERS",NA,"GASTROINTESTINAL DISORDERS",NA,"MODERATE","N",NA,"NONE","NOT RECOVERED/NOT RESOLVED","N","N","N","N","N","N","N","2013-02-12","2013-02-12","2013-02-12",1,1,"01-701-1047_1"
"CDISCPILOT01","AE","01-701-1047",2,"E06","HIATUS HERNIA","HERNIA HIATAL",NA,"HIATUS HERNIA",NA,"HLT_0159",NA,"HLGT_0109",NA,"GASTROINTESTINAL DISORDERS",NA,"GASTROINTESTINAL DISORDERS",NA,"MODERATE","N",NA,"NONE","RECOVERED/RESOLVED","N","N","N","N","N","N","N","2013-02-25","2013-02-12","2013-02-12",1,1,"01-701-1047_2"
"CDISCPILOT01","AE","01-701-1047",3,"E08","UPPER RESPIRATORY TRACT INFECTION","UPPER RESPIRATORY INFECTION",NA,"UPPER RESPIRATORY TRACT INFECTION",NA,"HLT_0520",NA,"HLGT_0489",NA,"INFECTIONS AND INFESTATIONS",NA,"INFECTIONS AND INFESTATIONS",NA,"MILD","N",NA,"NONE","NOT RECOVERED/NOT RESOLVED","N","N","N","N","N","N","N","2013-03-10","2013-03-06",NA,23,NA,"01-701-1047_3"
"CDISCPILOT01","AE","01-701-1097",4,"E06","APPLICATION SITE PRURITUS","APPLICATION SITE ITCHING",NA,"APPLICATION SITE PRURITUS",NA,"HLT_0317",NA,"HLGT_0338",NA,"GENERAL DISORDERS AND ADMINISTRATION SITE CONDITIONS",NA,"GENERAL DISORDERS AND ADMINISTRATION SITE CONDITIONS",NA,"MILD","N",NA,"POSSIBLE","NOT RECOVERED/NOT RESOLVED","N","N","N","N","N","N","N","2014-02-26","2014-02-21",NA,52,NA,"01-701-1097_4"
"CDISCPILOT01","AE","01-701-1097",10,"E06","APPLICATION SITE PRURITUS","APPLICATION SITE ITCHING",NA,"APPLICATION SITE PRURITUS",NA,"HLT_0317",NA,"HLGT_0338",NA,"GENERAL DISORDERS AND ADMINISTRATION SITE CONDITIONS",NA,"GENERAL DISORDERS AND ADMINISTRATION SITE CONDITIONS",NA,"MODERATE","N",NA,"POSSIBLE","NOT RECOVERED/NOT RESOLVED","N","N","N","N","N","N","N","2014-05-21","2014-02-21",NA,52,NA,"01-701-1097_10"
"CDISCPILOT01","AE","01-701-1097",3,"E07","APPLICATION SITE VESICLES","APPLICATION SITE BLISTER",NA,"APPLICATION SITE VESICLES",NA,"HLT_0180",NA,"HLGT_0576",NA,"GENERAL DISORDERS AND ADMINISTRATION SITE CONDITIONS",NA,"GENERAL DISORDERS AND ADMINISTRATION SITE CONDITIONS",NA,"MILD","N",NA,"PROBABLE","RECOVERED/RESOLVED","N","N","N","N","N","N","N","2014-02-26","2014-02-20","2014-02-22",51,53,"01-701-1097_3"
"CDISCPILOT01","AE","01-701-1097",1,"E04","ERYTHEMA","ERYTHEMA",NA,"ERYTHEMA",NA,"HLT_0284",NA,"HLGT_0192",NA,"SKIN AND SUBCUTANEOUS TISSUE DISORDERS",NA,"SKIN AND SUBCUTANEOUS TISSUE DISORDERS",NA,"MILD","N",NA,"POSSIBLE","NOT RECOVERED/NOT RESOLVED","N","N","N","N","N","N","N","2014-01-15","2014-01-03",NA,3,NA,"01-701-1097_1"
"CDISCPILOT01","AE","01-701-1097",9,"E11","NASAL CONGESTION","NASAL CONGESTION",NA,"NASAL CONGESTION",NA,"HLT_0118",NA,"HLGT_0549",NA,"RESPIRATORY, THORACIC AND MEDIASTINAL DISORDERS",NA,"RESPIRATORY, THORACIC AND MEDIASTINAL DISORDERS",NA,"MILD","N",NA,"NONE","RECOVERED/RESOLVED","N","N","N","N","N","N","N","2014-04-23","2014-04-19","2014-04-22",109,112,"01-701-1097_9"
"CDISCPILOT01","AE","01-701-1097",8,"E10","PHARYNGOLARYNGEAL PAIN","SORE THROAT",NA,"PHARYNGOLARYNGEAL PAIN",NA,"HLT_0130",NA,"HLGT_0402",NA,"RESPIRATORY, THORACIC AND MEDIASTINAL DISORDERS",NA,"RESPIRATORY, THORACIC AND MEDIASTINAL DISORDERS",NA,"MILD","N",NA,"NONE","RECOVERED/RESOLVED","N","N","N","N","N","N","N","2014-04-23","2014-04-19","2014-04-22",109,112,"01-701-1097_8"
"CDISCPILOT01","AE","01-701-1097",2,"E05","PRURITUS GENERALISED","GENERALIZED PRURITUS",NA,"PRURITUS GENERALISED",NA,"HLT_0123",NA,"HLGT_0689",NA,"SKIN AND SUBCUTANEOUS TISSUE DISORDERS",NA,"SKIN AND SUBCUTANEOUS TISSUE DISORDERS",NA,"MODERATE","N",NA,"POSSIBLE","RECOVERED/RESOLVED","N","N","N","N","N","N","N","2014-02-26","2014-02-20","2014-02-20",51,51,"01-701-1097_2"
"CDISCPILOT01","AE","01-701-1097",5,"E08","PRURITUS GENERALISED","GENERALIZED PRURITUS",NA,"PRURITUS GENERALISED",NA,"HLT_0123",NA,"HLGT_0689",NA,"SKIN AND SUBCUTANEOUS TISSUE DISORDERS",NA,"SKIN AND SUBCUTANEOUS TISSUE DISORDERS",NA,"MODERATE","N",NA,"POSSIBLE","RECOVERED/RESOLVED","N","N","N","N","N","N","N","2014-03-26","2014-03-21","2014-03-21",80,80,"01-701-1097_5"
"CDISCPILOT01","AE","01-701-1097",6,"E12","PRURITUS GENERALISED","GENERALIZED PRURITUS",NA,"PRURITUS GENERALISED",NA,"HLT_0123",NA,"HLGT_0689",NA,"SKIN AND SUBCUTANEOUS TISSUE DISORDERS",NA,"SKIN AND SUBCUTANEOUS TISSUE DISORDERS",NA,"MODERATE","N",NA,"POSSIBLE","RECOVERED/RESOLVED","N","N","N","N","N","N","N","2014-04-23","2014-03-31","2014-03-31",90,90,"01-701-1097_6"
"CDISCPILOT01","AE","01-701-1097",7,"E09","PRURITUS GENERALISED","GENERALIZED PRURITUS",NA,"PRURITUS GENERALISED",NA,"HLT_0123",NA,"HLGT_0689",NA,"SKIN AND SUBCUTANEOUS TISSUE DISORDERS",NA,"SKIN AND SUBCUTANEOUS TISSUE DISORDERS",NA,"MODERATE","N",NA,"POSSIBLE","RECOVERED/RESOLVED","N","N","N","N","N","N","N","2014-04-23","2014-04-19","2014-04-20",109,110,"01-701-1097_7"
"CDISCPILOT01","AE","01-701-1111",7,"E16","ARTHRALGIA","GENERALIZED JOINT PAIN",NA,"ARTHRALGIA",NA,"HLT_0375",NA,"HLGT_0610",NA,"MUSCULOSKELETAL AND CONNECTIVE TISSUE DISORDERS",NA,"MUSCULOSKELETAL AND CONNECTIVE TISSUE DISORDERS",NA,"MODERATE","N",NA,"NONE","NOT RECOVERED/NOT RESOLVED","N","N","N","N","N","N","N","2012-09-17","2012-09-13",NA,7,NA,"01-701-1111_7"
"CDISCPILOT01","AE","01-701-1111",8,"E17","CELLULITIS","CELLULITIS OF LEG",NA,"CELLULITIS",NA,"HLT_0613",NA,"HLGT_0066",NA,"INFECTIONS AND INFESTATIONS",NA,"INFECTIONS AND INFESTATIONS",NA,"MODERATE","N",NA,"NONE","NOT RECOVERED/NOT RESOLVED","N","N","N","N","N","N","N","2012-09-17","2012-09-13",NA,7,NA,"01-701-1111_8"
"CDISCPILOT01","AE","01-701-1111",1,"E14","ERYTHEMA","ERYTHEMA",NA,"ERYTHEMA",NA,"HLT_0284",NA,"HLGT_0192",NA,"SKIN AND SUBCUTANEOUS TISSUE DISORDERS",NA,"SKIN AND SUBCUTANEOUS TISSUE DISORDERS",NA,"MILD","N",NA,"NONE","NOT RECOVERED/NOT RESOLVED","N","N","N","N","N","N","N","2012-09-05","2012-09-02","2012-09-07",-5,1,"01-701-1111_1"
"CDISCPILOT01","AE","01-701-1111",4,"E14","ERYTHEMA","ERYTHEMA",NA,"ERYTHEMA",NA,"HLT_0284",NA,"HLGT_0192",NA,"SKIN AND SUBCUTANEOUS TISSUE DISORDERS",NA,"SKIN AND SUBCUTANEOUS TISSUE DISORDERS",NA,"MILD","N",NA,"NONE","RECOVERED/RESOLVED","N","N","N","N","N","N","N","2012-09-17","2012-09-02","2012-09-07",-5,1,"01-701-1111_4"
"CDISCPILOT01","AE","01-701-1111",3,"E06","LOCALISED INFECTION","LOCALIZED INFECTION",NA,"LOCALISED INFECTION",NA,"HLT_0435",NA,"HLGT_0557",NA,"INFECTIONS AND INFESTATIONS",NA,"INFECTIONS AND INFESTATIONS",NA,"MODERATE","N",NA,"NONE","NOT RECOVERED/NOT RESOLVED","N","N","N","N","N","N","N","2012-09-17","2012-07-08",NA,-61,NA,"01-701-1111_3"
"CDISCPILOT01","AE","01-701-1111",6,"E18","MICTURITION URGENCY","URINARY URGENCY",NA,"MICTURITION URGENCY",NA,"HLT_0294",NA,"HLGT_0483",NA,"RENAL AND URINARY DISORDERS",NA,"RENAL AND URINARY DISORDERS",NA,"MILD","N",NA,"NONE","NOT RECOVERED/NOT RESOLVED","N","N","N","N","N","N","N","2012-09-17","2012-09-07",NA,1,NA,"01-701-1111_6"
"CDISCPILOT01","AE","01-701-1111",2,"E15","PRURITUS","ITCHING",NA,"PRURITUS",NA,"HLT_0778",NA,"HLGT_0695",NA,"SKIN AND SUBCUTANEOUS TISSUE DISORDERS",NA,"SKIN AND SUBCUTANEOUS TISSUE DISORDERS",NA,"MILD","N",NA,"NONE","NOT RECOVERED/NOT RESOLVED","N","N","N","N","N","N","N","2012-09-05","2012-09-02","2012-09-07",-5,1,"01-701-1111_2"
"CDISCPILOT01","AE","01-701-1111",5,"E15","PRURITUS","ITCHING",NA,"PRURITUS",NA,"HLT_0778",NA,"HLGT_0695",NA,"SKIN AND SUBCUTANEOUS TISSUE DISORDERS",NA,"SKIN AND SUBCUTANEOUS TISSUE DISORDERS",NA,"MILD","N",NA,"NONE","RECOVERED/RESOLVED","N","N","N","N","N","N","N","2012-09-17","2012-09-02","2012-09-07",-5,1,"01-701-1111_5"
"CDISCPILOT01","AE","01-701-1115",9,"E14","APPLICATION SITE DERMATITIS","APPLICATION SITE RASH",NA,"APPLICATION SITE DERMATITIS",NA,"HLT_0343",NA,"HLGT_0241",NA,"GENERAL DISORDERS AND ADMINISTRATION SITE CONDITIONS",NA,"GENERAL DISORDERS AND ADMINISTRATION SITE CONDITIONS",NA,"MODERATE","N",NA,"PROBABLE","NOT RECOVERED/NOT RESOLVED","N","N","N","N","N","N","N","2013-01-23","2013-01-19",NA,51,NA,"01-701-1115_9"
"CDISCPILOT01","AE","01-701-1115",1,"E09","APPLICATION SITE ERYTHEMA","APPLICATION SITE REDNESS",NA,"APPLICATION SITE ERYTHEMA",NA,"HLT_0617",NA,"HLGT_0152",NA,"GENERAL DISORDERS AND ADMINISTRATION SITE CONDITIONS",NA,"GENERAL DISORDERS AND ADMINISTRATION SITE CONDITIONS",NA,"MILD","N",NA,"PROBABLE","NOT RECOVERED/NOT RESOLVED","N","N","N","N","N","N","N","2012-12-13","2012-12-02",NA,3,NA,"01-701-1115_1"
"CDISCPILOT01","AE","01-701-1115",5,"E09","APPLICATION SITE ERYTHEMA","APPLICATION SITE REDNESS",NA,"APPLICATION SITE ERYTHEMA",NA,"HLT_0617",NA,"HLGT_0152",NA,"GENERAL DISORDERS AND ADMINISTRATION SITE CONDITIONS",NA,"GENERAL DISORDERS AND ADMINISTRATION SITE CONDITIONS",NA,"MODERATE","N",NA,"PROBABLE","NOT RECOVERED/NOT RESOLVED","N","N","N","N","N","N","N","2013-01-23","2012-12-02",NA,3,NA,"01-701-1115_5"
"CDISCPILOT01","AE","01-701-1115",3,"E10","APPLICATION SITE IRRITATION","APPLICATION SITE BURNING",NA,"APPLICATION SITE IRRITATION",NA,"HLT_0061",NA,"HLGT_0346",NA,"GENERAL DISORDERS AND ADMINISTRATION SITE CONDITIONS",NA,"GENERAL DISORDERS AND ADMINISTRATION SITE CONDITIONS",NA,"MILD","N",NA,"POSSIBLE","NOT RECOVERED/NOT RESOLVED","N","N","N","N","N","N","N","2012-12-26","2012-12-26","2012-12-26",27,27,"01-701-1115_3"
"CDISCPILOT01","AE","01-701-1115",4,"E10","APPLICATION SITE IRRITATION","APPLICATION SITE BURNING",NA,"APPLICATION SITE IRRITATION",NA,"HLT_0061",NA,"HLGT_0346",NA,"GENERAL DISORDERS AND ADMINISTRATION SITE CONDITIONS",NA,"GENERAL DISORDERS AND ADMINISTRATION SITE CONDITIONS",NA,"MILD","N",NA,"POSSIBLE","RECOVERED/RESOLVED","N","N","N","N","N","N","N","2012-12-28","2012-12-26","2012-12-26",27,27,"01-701-1115_4"
"CDISCPILOT01","AE","01-701-1115",8,"E12","APPLICATION SITE IRRITATION","APPLICATION SITE BURNING",NA,"APPLICATION SITE IRRITATION",NA,"HLT_0061",NA,"HLGT_0346",NA,"GENERAL DISORDERS AND ADMINISTRATION SITE CONDITIONS",NA,"GENERAL DISORDERS AND ADMINISTRATION SITE CONDITIONS",NA,"MODERATE","N",NA,"PROBABLE","NOT RECOVERED/NOT RESOLVED","N","N","N","N","N","N","N","2013-01-23","2013-01-19",NA,51,NA,"01-701-1115_8"
"CDISCPILOT01","AE","01-701-1115",2,"E11","APPLICATION SITE PRURITUS","APPLICATION SITE ITCHING",NA,"APPLICATION SITE PRURITUS",NA,"HLT_0317",NA,"HLGT_0338",NA,"GENERAL DISORDERS AND ADMINISTRATION SITE CONDITIONS",NA,"GENERAL DISORDERS AND ADMINISTRATION SITE CONDITIONS",NA,"MILD","N",NA,"PROBABLE","NOT RECOVERED/NOT RESOLVED","N","N","N","N","N","N","N","2012-12-13","2012-12-02",NA,3,NA,"01-701-1115_2"
"CDISCPILOT01","AE","01-701-1115",6,"E11","APPLICATION SITE PRURITUS","APPLICATION SITE ITCHING",NA,"APPLICATION SITE PRURITUS",NA,"HLT_0317",NA,"HLGT_0338",NA,"GENERAL DISORDERS AND ADMINISTRATION SITE CONDITIONS",NA,"GENERAL DISORDERS AND ADMINISTRATION SITE CONDITIONS",NA,"MODERATE","N",NA,"PROBABLE","NOT RECOVERED/NOT RESOLVED","N","N","N","N","N","N","N","2013-01-23","2012-12-02",NA,3,NA,"01-701-1115_6"
"CDISCPILOT01","AE","01-701-1115",7,"E13","FATIGUE","FATIGUE",NA,"FATIGUE",NA,"HLT_0043",NA,"HLGT_0181",NA,"GENERAL DISORDERS AND ADMINISTRATION SITE CONDITIONS",NA,"GENERAL DISORDERS AND ADMINISTRATION SITE CONDITIONS",NA,"MODERATE","N",NA,"REMOTE","NOT RECOVERED/NOT RESOLVED","N","N","N","N","N","N","N","2013-01-23","2013-01-14",NA,46,NA,"01-701-1115_7"
"CDISCPILOT01","AE","01-701-1118",1,"E06","COUGH","COUGH",NA,"COUGH",NA,"HLT_0701",NA,"HLGT_0280",NA,"RESPIRATORY, THORACIC AND MEDIASTINAL DISORDERS",NA,"RESPIRATORY, THORACIC AND MEDIASTINAL DISORDERS",NA,"MILD","N",NA,"NONE","NOT RECOVERED/NOT RESOLVED","N","N","N","N","N","N","N","2014-03-10","2003",NA,NA,NA,"01-701-1118_1"
"CDISCPILOT01","AE","01-701-1130",5,"E09","EYE ALLERGY","EYE ALLERGY",NA,"EYE ALLERGY",NA,"HLT_0256",NA,"HLGT_0071",NA,"EYE DISORDERS",NA,"EYE DISORDERS",NA,"MILD","N",NA,"NONE","RECOVERED/RESOLVED","N","N","N","N","N","N","N","2014-05-16","2014-05-09","2014-05-09",84,84,"01-701-1130_5"
"CDISCPILOT01","AE","01-701-1130",6,"E10","EYE PRURITUS","EYE ITCHING",NA,"EYE PRURITUS",NA,"HLT_0523",NA,"HLGT_0240",NA,"EYE DISORDERS",NA,"EYE DISORDERS",NA,"MILD","N",NA,"REMOTE","NOT RECOVERED/NOT RESOLVED","N","N","N","N","N","N","N","2014-06-07","2014-05-22",NA,97,NA,"01-701-1130_6"
"CDISCPILOT01","AE","01-701-1130",4,"E08","EYE SWELLING","EYES SWOLLEN",NA,"EYE SWELLING",NA,"HLT_0008",NA,"HLGT_0466",NA,"EYE DISORDERS",NA,"EYE DISORDERS",NA,"MILD","N",NA,"NONE","RECOVERED/RESOLVED","N","N","N","N","N","N","N","2014-05-16","2014-05-09","2014-05-09",84,84,"01-701-1130_4"
"CDISCPILOT01","AE","01-701-1130",8,"E12","NASAL CONGESTION","NASAL CONGESTION",NA,"NASAL CONGESTION",NA,"HLT_0118",NA,"HLGT_0549",NA,"RESPIRATORY, THORACIC AND MEDIASTINAL DISORDERS",NA,"RESPIRATORY, THORACIC AND MEDIASTINAL DISORDERS",NA,"MILD","N",NA,"REMOTE","NOT RECOVERED/NOT RESOLVED","N","N","N","N","N","N","N","2014-06-07","2014-05-22",NA,97,NA,"01-701-1130_8"
"CDISCPILOT01","AE","01-701-1130",7,"E11","PRURITUS","ITCHING BOTH HANDS",NA,"PRURITUS",NA,"HLT_0778",NA,"HLGT_0695",NA,"SKIN AND SUBCUTANEOUS TISSUE DISORDERS",NA,"SKIN AND SUBCUTANEOUS TISSUE DISORDERS",NA,"MILD","N",NA,"REMOTE","NOT RECOVERED/NOT RESOLVED","N","N","N","N","N","N","N","2014-06-07","2014-05-22",NA,97,NA,"01-701-1130_7"
"CDISCPILOT01","AE","01-701-1130",2,"E07","PYREXIA","FEVER",NA,"PYREXIA",NA,"HLT_0310",NA,"HLGT_0652",NA,"GENERAL DISORDERS AND ADMINISTRATION SITE CONDITIONS",NA,"GENERAL DISORDERS AND ADMINISTRATION SITE CONDITIONS",NA,"MILD","N",NA,"NONE","RECOVERED/RESOLVED","N","N","N","N","N","N","N","2014-03-15","2014-03-09","2014-03-09",23,23,"01-701-1130_2"
"CDISCPILOT01","AE","01-701-1130",1,"E06","URINARY TRACT INFECTION","URINARY TRACT INFECTION",NA,"URINARY TRACT INFECTION",NA,"HLT_0161",NA,"HLGT_0093",NA,"INFECTIONS AND INFESTATIONS",NA,"INFECTIONS AND INFESTATIONS",NA,"MILD","N",NA,"NONE","NOT RECOVERED/NOT RESOLVED","N","N","N","N","N","N","N","2014-03-15","2014-03-09","2014-03-16",23,30,"01-701-1130_1"
"CDISCPILOT01","AE","01-701-1130",3,"E06","URINARY TRACT INFECTION","URINARY TRACT INFECTION",NA,"URINARY TRACT INFECTION",NA,"HLT_0161",NA,"HLGT_0093",NA,"INFECTIONS AND INFESTATIONS",NA,"INFECTIONS AND INFESTATIONS",NA,"MILD","N",NA,"NONE","RECOVERED/RESOLVED","N","N","N","N","N","N","N","2014-03-17","2014-03-09","2014-03-16",23,30,"01-701-1130_3"
"CDISCPILOT01","AE","01-701-1133",1,"E04","APPLICATION SITE ERYTHEMA","APPLICATION SITE REDNESS",NA,"APPLICATION SITE ERYTHEMA",NA,"HLT_0617",NA,"HLGT_0152",NA,"GENERAL DISORDERS AND ADMINISTRATION SITE CONDITIONS",NA,"GENERAL DISORDERS AND ADMINISTRATION SITE CONDITIONS",NA,"MILD","N",NA,"PROBABLE","NOT RECOVERED/NOT RESOLVED","N","N","N","N","N","N","N","2013-01-22","2012-12-27",NA,61,NA,"01-701-1133_1"
"CDISCPILOT01","AE","01-701-1133",3,"E04","APPLICATION SITE ERYTHEMA","APPLICATION SITE REDNESS",NA,"APPLICATION SITE ERYTHEMA",NA,"HLT_0617",NA,"HLGT_0152",NA,"GENERAL DISORDERS AND ADMINISTRATION SITE CONDITIONS",NA,"GENERAL DISORDERS AND ADMINISTRATION SITE CONDITIONS",NA,"MODERATE","N",NA,"PROBABLE","NOT RECOVERED/NOT RESOLVED","N","N","N","N","N","N","N","2013-02-18","2012-12-27",NA,61,NA,"01-701-1133_3"
"CDISCPILOT01","AE","01-701-1133",2,"E05","APPLICATION SITE PRURITUS","APPLICATION SITE ITCHING",NA,"APPLICATION SITE PRURITUS",NA,"HLT_0317",NA,"HLGT_0338",NA,"GENERAL DISORDERS AND ADMINISTRATION SITE CONDITIONS",NA,"GENERAL DISORDERS AND ADMINISTRATION SITE CONDITIONS",NA,"MILD","N",NA,"PROBABLE","NOT RECOVERED/NOT RESOLVED","N","N","N","N","N","N","N","2013-01-22","2012-12-27",NA,61,NA,"01-701-1133_2"
"CDISCPILOT01","AE","01-701-1133",4,"E05","APPLICATION SITE PRURITUS","APPLICATION SITE ITCHING",NA,"APPLICATION SITE PRURITUS",NA,"HLT_0317",NA,"HLGT_0338",NA,"GENERAL DISORDERS AND ADMINISTRATION SITE CONDITIONS",NA,"GENERAL DISORDERS AND ADMINISTRATION SITE CONDITIONS",NA,"MODERATE","N",NA,"PROBABLE","NOT RECOVERED/NOT RESOLVED","N","N","N","N","N","N","N","2013-02-18","2012-12-27",NA,61,NA,"01-701-1133_4"
"CDISCPILOT01","AE","01-701-1146",5,"E12","APPLICATION SITE ERYTHEMA","APPLICATION SITE ERYTHEMA",NA,"APPLICATION SITE ERYTHEMA",NA,"HLT_0617",NA,"HLGT_0152",NA,"GENERAL DISORDERS AND ADMINISTRATION SITE CONDITIONS",NA,"GENERAL DISORDERS AND ADMINISTRATION SITE CONDITIONS",NA,"MILD","N",NA,"PROBABLE","NOT RECOVERED/NOT RESOLVED","N","N","N","N","N","N","N","2013-06-16","2013-06-10",NA,22,NA,"01-701-1146_5"
"CDISCPILOT01","AE","01-701-1146",7,"E12","APPLICATION SITE ERYTHEMA","APPLICATION SITE ERYTHEMA",NA,"APPLICATION SITE ERYTHEMA",NA,"HLT_0617",NA,"HLGT_0152",NA,"GENERAL DISORDERS AND ADMINISTRATION SITE CONDITIONS",NA,"GENERAL DISORDERS AND ADMINISTRATION SITE CONDITIONS",NA,"MODERATE","N",NA,"PROBABLE","NOT RECOVERED/NOT RESOLVED","N","N","N","N","N","N","N","2013-06-30","2013-06-10",NA,22,NA,"01-701-1146_7"
"CDISCPILOT01","AE","01-701-1146",3,"E10","APPLICATION SITE IRRITATION","APPLICATION SITE IRRITATION",NA,"APPLICATION SITE IRRITATION",NA,"HLT_0061",NA,"HLGT_0346",NA,"GENERAL DISORDERS AND ADMINISTRATION SITE CONDITIONS",NA,"GENERAL DISORDERS AND ADMINISTRATION SITE CONDITIONS",NA,"MILD","N",NA,"PROBABLE","RECOVERED/RESOLVED","N","N","N","N","N","N","N","2013-06-03","2013-06-01","2013-06-02",13,14,"01-701-1146_3"
"CDISCPILOT01","AE","01-701-1146",11,"E16","APPLICATION SITE IRRITATION","APPLICATION SITE BURNING",NA,"APPLICATION SITE IRRITATION",NA,"HLT_0061",NA,"HLGT_0346",NA,"GENERAL DISORDERS AND ADMINISTRATION SITE CONDITIONS",NA,"GENERAL DISORDERS AND ADMINISTRATION SITE CONDITIONS",NA,"MODERATE","N",NA,"PROBABLE","NOT RECOVERED/NOT RESOLVED","N","N","N","N","N","N","N","2013-06-30","2013-06-26",NA,38,NA,"01-701-1146_11"
"CDISCPILOT01","AE","01-701-1146",9,"E14","APPLICATION SITE PAIN","APPLICATION SITE PAIN",NA,"APPLICATION SITE PAIN",NA,"HLT_0342",NA,"HLGT_0085",NA,"GENERAL DISORDERS AND ADMINISTRATION SITE CONDITIONS",NA,"GENERAL DISORDERS AND ADMINISTRATION SITE CONDITIONS",NA,"MODERATE","N",NA,"PROBABLE","NOT RECOVERED/NOT RESOLVED","N","N","N","N","N","N","N","2013-06-30","2013-06-22",NA,34,NA,"01-701-1146_9"
"CDISCPILOT01","AE","01-701-1146",6,"E13","APPLICATION SITE PRURITUS","APPLICATION SITE ITCHING",NA,"APPLICATION SITE PRURITUS",NA,"HLT_0317",NA,"HLGT_0338",NA,"GENERAL DISORDERS AND ADMINISTRATION SITE CONDITIONS",NA,"GENERAL DISORDERS AND ADMINISTRATION SITE CONDITIONS",NA,"MILD","N",NA,"PROBABLE","NOT RECOVERED/NOT RESOLVED","N","N","N","N","N","N","N","2013-06-16","2013-06-10",NA,22,NA,"01-701-1146_6"
"CDISCPILOT01","AE","01-701-1146",8,"E13","APPLICATION SITE PRURITUS","APPLICATION SITE ITCHING",NA,"APPLICATION SITE PRURITUS",NA,"HLT_0317",NA,"HLGT_0338",NA,"GENERAL DISORDERS AND ADMINISTRATION SITE CONDITIONS",NA,"GENERAL DISORDERS AND ADMINISTRATION SITE CONDITIONS",NA,"MODERATE","N",NA,"PROBABLE","NOT RECOVERED/NOT RESOLVED","N","N","N","N","N","N","N","2013-06-30","2013-06-10",NA,22,NA,"01-701-1146_8"
"CDISCPILOT01","AE","01-701-1146",10,"E15","APPLICATION SITE VESICLES","APPLICATION SITE VESICLES",NA,"APPLICATION SITE VESICLES",NA,"HLT_0180",NA,"HLGT_0576",NA,"GENERAL DISORDERS AND ADMINISTRATION SITE CONDITIONS",NA,"GENERAL DISORDERS AND ADMINISTRATION SITE CONDITIONS",NA,"MODERATE","N",NA,"PROBABLE","NOT RECOVERED/NOT RESOLVED","N","N","N","N","N","N","N","2013-06-30","2013-06-26",NA,38,NA,"01-701-1146_10"
"CDISCPILOT01","AE","01-701-1146",4,"E11","FATIGUE","FATIGUE",NA,"FATIGUE",NA,"HLT_0043",NA,"HLGT_0181",NA,"GENERAL DISORDERS AND ADMINISTRATION SITE CONDITIONS",NA,"GENERAL DISORDERS AND ADMINISTRATION SITE CONDITIONS",NA,"MILD","N",NA,"POSSIBLE","NOT RECOVERED/NOT RESOLVED","N","N","N","N","N","N","N","2013-06-03","2013-06-03",NA,15,NA,"01-701-1146_4"
"CDISCPILOT01","AE","01-701-1146",1,"E09","RASH","RASH",NA,"RASH",NA,"HLT_0762",NA,"HLGT_0198",NA,"SKIN AND SUBCUTANEOUS TISSUE DISORDERS",NA,"SKIN AND SUBCUTANEOUS TISSUE DISORDERS",NA,"MILD","N",NA,"NONE","NOT RECOVERED/NOT RESOLVED","N","N","N","N","N","N","N","2013-05-18","2013-05-16","2013-06-02",-4,14,"01-701-1146_1"
"CDISCPILOT01","AE","01-701-1146",2,"E09","RASH","RASH",NA,"RASH",NA,"HLT_0762",NA,"HLGT_0198",NA,"SKIN AND SUBCUTANEOUS TISSUE DISORDERS",NA,"SKIN AND SUBCUTANEOUS TISSUE DISORDERS",NA,"MILD","N",NA,"NONE","RECOVERED/RESOLVED","N","N","N","N","N","N","N","2013-06-03","2013-05-16","2013-06-02",-4,14,"01-701-1146_2"
"CDISCPILOT01","AE","01-701-1148",10,"E27","ACTINIC KERATOSIS","ACTINIC KERATOSIS",NA,"ACTINIC KERATOSIS",NA,"HLT_0609",NA,"HLGT_0490",NA,"SKIN AND SUBCUTANEOUS TISSUE DISORDERS",NA,"SKIN AND SUBCUTANEOUS TISSUE DISORDERS",NA,"MILD","N",NA,"NONE","NOT RECOVERED/NOT RESOLVED","N","N","N","N","N","N","N","2014-02-20","2014-02-12",NA,174,NA,"01-701-1148_10"
"CDISCPILOT01","AE","01-701-1148",1,"E20","APPLICATION SITE ERYTHEMA","APPLICATION SITE REDNESS",NA,"APPLICATION SITE ERYTHEMA",NA,"HLT_0617",NA,"HLGT_0152",NA,"GENERAL DISORDERS AND ADMINISTRATION SITE CONDITIONS",NA,"GENERAL DISORDERS AND ADMINISTRATION SITE CONDITIONS",NA,"MILD","N",NA,"PROBABLE","NOT RECOVERED/NOT RESOLVED","N","N","N","N","N","N","N","2013-09-05","2013-08-25",NA,3,NA,"01-701-1148_1"
"CDISCPILOT01","AE","01-701-1148",2,"E21","APPLICATION SITE PRURITUS","APPLICATION SITE ITCHING",NA,"APPLICATION SITE PRURITUS",NA,"HLT_0317",NA,"HLGT_0338",NA,"GENERAL DISORDERS AND ADMINISTRATION SITE CONDITIONS",NA,"GENERAL DISORDERS AND ADMINISTRATION SITE CONDITIONS",NA,"MILD","N",NA,"PROBABLE","NOT RECOVERED/NOT RESOLVED","N","N","N","N","N","N","N","2013-09-05","2013-08-25",NA,3,NA,"01-701-1148_2"
"CDISCPILOT01","AE","01-701-1148",6,"E25","CALCULUS URETHRAL","URETHRAL CALCULUS",NA,"CALCULUS URETHRAL",NA,"HLT_0550",NA,"HLGT_0414",NA,"RENAL AND URINARY DISORDERS",NA,"RENAL AND URINARY DISORDERS",NA,"MODERATE","N",NA,"NONE","RECOVERED/RESOLVED","N","N","N","N","N","N","N","2014-01-10","2013-12-17","2013-12-17",117,117,"01-701-1148_6"
"CDISCPILOT01","AE","01-701-1148",9,"E26","DEPRESSED MOOD","DEPRESSED MOOD",NA,"DEPRESSED MOOD",NA,"HLT_0784",NA,"HLGT_0122",NA,"PSYCHIATRIC DISORDERS",NA,"PSYCHIATRIC DISORDERS",NA,"MODERATE","N",NA,"NONE","NOT RECOVERED/NOT RESOLVED","N","N","N","N","N","N","N","2014-02-08","2013-07-29",NA,-25,NA,"01-701-1148_9"
"CDISCPILOT01","AE","01-701-1148",8,"E03","DYSPEPSIA","INDIGESTION",NA,"DYSPEPSIA",NA,"HLT_0244",NA,"HLGT_0716",NA,"GASTROINTESTINAL DISORDERS",NA,"GASTROINTESTINAL DISORDERS",NA,"MODERATE","N",NA,"NONE","NOT RECOVERED/NOT RESOLVED","N","N","N","N","N","N","N","2014-02-08","2012-02",NA,NA,NA,"01-701-1148_8"
"CDISCPILOT01","AE","01-701-1148",7,"E28","EPISTAXIS","NOSE BLEED",NA,"EPISTAXIS",NA,"HLT_0386",NA,"HLGT_0577",NA,"RESPIRATORY, THORACIC AND MEDIASTINAL DISORDERS",NA,"RESPIRATORY, THORACIC AND MEDIASTINAL DISORDERS",NA,"MILD","N",NA,"NONE","RECOVERED/RESOLVED","N","N","N","N","N","N","N","2014-01-10","2014-01-03","2014-01-03",134,134,"01-701-1148_7"
"CDISCPILOT01","AE","01-701-1148",5,"E24","FLANK PAIN","FLANK PAIN",NA,"FLANK PAIN",NA,"HLT_0484",NA,"HLGT_0543",NA,"MUSCULOSKELETAL AND CONNECTIVE TISSUE DISORDERS",NA,"MUSCULOSKELETAL AND CONNECTIVE TISSUE DISORDERS",NA,"MODERATE","N",NA,"NONE","RECOVERED/RESOLVED","N","N","N","N","N","N","N","2014-01-10","2013-12-15","2013-12-17",115,117,"01-701-1148_5"
"CDISCPILOT01","AE","01-701-1148",3,"E23","LOWER RESPIRATORY TRACT INFECTION","CHEST COLD",NA,"LOWER RESPIRATORY TRACT INFECTION",NA,"HLT_0052",NA,"HLGT_0217",NA,"INFECTIONS AND INFESTATIONS",NA,"INFECTIONS AND INFESTATIONS",NA,"MODERATE","N",NA,"NONE","NOT RECOVERED/NOT RESOLVED","N","N","N","N","N","N","N","2013-10-18","2013-10-12","2013-11-10",51,80,"01-701-1148_3"
"CDISCPILOT01","AE","01-701-1148",4,"E23","LOWER RESPIRATORY TRACT INFECTION","CHEST COLD",NA,"LOWER RESPIRATORY TRACT INFECTION",NA,"HLT_0052",NA,"HLGT_0217",NA,"INFECTIONS AND INFESTATIONS",NA,"INFECTIONS AND INFESTATIONS",NA,"MODERATE","N",NA,"NONE","RECOVERED/RESOLVED","N","N","N","N","N","N","N","2013-11-17","2013-10-12","2013-11-10",51,80,"01-701-1148_4"
"CDISCPILOT01","AE","01-701-1153",1,"E06","INCREASED APPETITE","INCREASED APPETITE",NA,"INCREASED APPETITE",NA,"HLT_0566",NA,"HLGT_0769",NA,"METABOLISM AND NUTRITION DISORDERS",NA,"METABOLISM AND NUTRITION DISORDERS",NA,"MILD","N",NA,"POSSIBLE","NOT RECOVERED/NOT RESOLVED","N","N","N","N","N","N","N","2013-10-19","2013-10-13","2013-11-06",21,45,"01-701-1153_1"
"CDISCPILOT01","AE","01-701-1153",2,"E06","INCREASED APPETITE","INCREASED APPETITE",NA,"INCREASED APPETITE",NA,"HLT_0566",NA,"HLGT_0769",NA,"METABOLISM AND NUTRITION DISORDERS",NA,"METABOLISM AND NUTRITION DISORDERS",NA,"MILD","N",NA,"POSSIBLE","RECOVERED/RESOLVED","N","N","N","N","N","N","N","2013-11-18","2013-10-13","2013-11-06",21,45,"01-701-1153_2"
"CDISCPILOT01","AE","01-701-1180",9,"E07","APPLICATION SITE ERYTHEMA","APPLICATION SITE ERYTHEMA",NA,"APPLICATION SITE ERYTHEMA",NA,"HLT_0617",NA,"HLGT_0152",NA,"GENERAL DISORDERS AND ADMINISTRATION SITE CONDITIONS",NA,"GENERAL DISORDERS AND ADMINISTRATION SITE CONDITIONS",NA,"MODERATE","N",NA,"POSSIBLE","NOT RECOVERED/NOT RESOLVED","N","N","N","N","N","N","N","2013-03-23","2013-03-19",NA,36,NA,"01-701-1180_9"
"CDISCPILOT01","AE","01-701-1180",8,"E06","APPLICATION SITE PRURITUS","APPLICATION SITE ITCHING",NA,"APPLICATION SITE PRURITUS",NA,"HLT_0317",NA,"HLGT_0338",NA,"GENERAL DISORDERS AND ADMINISTRATION SITE CONDITIONS",NA,"GENERAL DISORDERS AND ADMINISTRATION SITE CONDITIONS",NA,"MODERATE","N",NA,"POSSIBLE","NOT RECOVERED/NOT RESOLVED","N","N","N","N","N","N","N","2013-03-23","2013-03-19",NA,36,NA,"01-701-1180_8"
"CDISCPILOT01","AE","01-701-1180",7,"E05","APPLICATION SITE VESICLES","APPLICATION SITE BLISTER",NA,"APPLICATION SITE VESICLES",NA,"HLT_0180",NA,"HLGT_0576",NA,"GENERAL DISORDERS AND ADMINISTRATION SITE CONDITIONS",NA,"GENERAL DISORDERS AND ADMINISTRATION SITE CONDITIONS",NA,"MODERATE","N",NA,"POSSIBLE","NOT RECOVERED/NOT RESOLVED","N","N","N","N","N","N","N","2013-03-23","2013-03-19",NA,36,NA,"01-701-1180_7"
"CDISCPILOT01","AE","01-701-1180",4,"E04","HEADACHE","HEADACHE",NA,"HEADACHE",NA,"HLT_0064",NA,"HLGT_0344",NA,"NERVOUS SYSTEM DISORDERS",NA,"NERVOUS SYSTEM DISORDERS",NA,"MODERATE","N",NA,"NONE","NOT RECOVERED/NOT RESOLVED","N","N","N","N","N","N","N","2013-03-11","2002",NA,NA,NA,"01-701-1180_4"
"CDISCPILOT01","AE","01-701-1180",3,"E02","MICTURITION URGENCY","URINARY URGENCY",NA,"MICTURITION URGENCY",NA,"HLT_0294",NA,"HLGT_0483",NA,"RENAL AND URINARY DISORDERS",NA,"RENAL AND URINARY DISORDERS",NA,"MILD","N",NA,"POSSIBLE","NOT RECOVERED/NOT RESOLVED","N","N","N","N","N","N","N","2013-02-25","2013-02-15","2013-03-19",4,36,"01-701-1180_3"
"CDISCPILOT01","AE","01-701-1180",6,"E02","MICTURITION URGENCY","URINARY URGENCY",NA,"MICTURITION URGENCY",NA,"HLT_0294",NA,"HLGT_0483",NA,"RENAL AND URINARY DISORDERS",NA,"RENAL AND URINARY DISORDERS",NA,"MILD","N",NA,"POSSIBLE","RECOVERED/RESOLVED","N","N","N","N","N","N","N","2013-03-23","2013-02-15","2013-03-19",4,36,"01-701-1180_6"
"CDISCPILOT01","AE","01-701-1180",5,"E03","NASOPHARYNGITIS","COLD",NA,"NASOPHARYNGITIS",NA,"HLT_0036",NA,"HLGT_0709",NA,"INFECTIONS AND INFESTATIONS",NA,"INFECTIONS AND INFESTATIONS",NA,"MILD","N",NA,"NONE","RECOVERED/RESOLVED","N","N","N","N","N","N","N","2013-03-11","2013-03-06","2013-03-07",23,24,"01-701-1180_5"
"CDISCPILOT01","AE","01-701-1180",1,"E01","VOMITING","VOMITING",NA,"VOMITING",NA,"HLT_0016",NA,"HLGT_0350",NA,"GASTROINTESTINAL DISORDERS",NA,"GASTROINTESTINAL DISORDERS",NA,"MILD","N",NA,"NONE","NOT RECOVERED/NOT RESOLVED","N","N","N","N","N","N","N","2013-02-12","2013-02-12","2013-02-12",1,1,"01-701-1180_1"
"CDISCPILOT01","AE","01-701-1180",2,"E01","VOMITING","VOMITING",NA,"VOMITING",NA,"HLT_0016",NA,"HLGT_0350",NA,"GASTROINTESTINAL DISORDERS",NA,"GASTROINTESTINAL DISORDERS",NA,"MILD","N",NA,"NONE","RECOVERED/RESOLVED","N","N","N","N","N","N","N","2013-02-25","2013-02-12","2013-02-12",1,1,"01-701-1180_2"
"CDISCPILOT01","AE","01-701-1181",1,"E16","AGITATION","AGITATION",NA,"AGITATION",NA,"HLT_0140",NA,"HLGT_0170",NA,"PSYCHIATRIC DISORDERS",NA,"PSYCHIATRIC DISORDERS",NA,"MODERATE","N",NA,"NONE","RECOVERED/RESOLVED","N","N","N","N","N","N","N","2013-12-12","2013-12-09","2013-12-09",5,5,"01-701-1181_1"
"CDISCPILOT01","AE","01-701-1188",7,"E09","APPLICATION SITE URTICARIA","APPLICATION SITE URTICARIA",NA,"APPLICATION SITE URTICARIA",NA,"HLT_0196",NA,"HLGT_0233",NA,"GENERAL DISORDERS AND ADMINISTRATION SITE CONDITIONS",NA,"GENERAL DISORDERS AND ADMINISTRATION SITE CONDITIONS",NA,"MILD","N",NA,"PROBABLE","NOT RECOVERED/NOT RESOLVED","N","N","N","N","N","N","N","2013-03-25","2013-03-21",NA,35,NA,"01-701-1188_7"
"CDISCPILOT01","AE","01-701-1188",1,"E04","ERYTHEMA","ERYTHEMA",NA,"ERYTHEMA",NA,"HLT_0284",NA,"HLGT_0192",NA,"SKIN AND SUBCUTANEOUS TISSUE DISORDERS",NA,"SKIN AND SUBCUTANEOUS TISSUE DISORDERS",NA,"MILD","N",NA,"PROBABLE","NOT RECOVERED/NOT RESOLVED","N","N","N","N","N","N","N","2013-03-02","2013-02-16",NA,2,NA,"01-701-1188_1"
"CDISCPILOT01","AE","01-701-1188",3,"E04","ERYTHEMA","ERYTHEMA",NA,"ERYTHEMA",NA,"HLT_0284",NA,"HLGT_0192",NA,"SKIN AND SUBCUTANEOUS TISSUE DISORDERS",NA,"SKIN AND SUBCUTANEOUS TISSUE DISORDERS",NA,"MODERATE","N",NA,"PROBABLE","NOT RECOVERED/NOT RESOLVED","N","N","N","N","N","N","N","2013-03-16","2013-02-16",NA,2,NA,"01-701-1188_3"
"CDISCPILOT01","AE","01-701-1188",2,"E05","PRURITUS","ITCHING",NA,"PRURITUS",NA,"HLT_0778",NA,"HLGT_0695",NA,"SKIN AND SUBCUTANEOUS TISSUE DISORDERS",NA,"SKIN AND SUBCUTANEOUS TISSUE DISORDERS",NA,"MILD","N",NA,"PROBABLE","NOT RECOVERED/NOT RESOLVED","N","N","N","N","N","N","N","2013-03-02","2013-02-16",NA,2,NA,"01-701-1188_2"
"CDISCPILOT01","AE","01-701-1188",4,"E05","PRURITUS","ITCHING",NA,"PRURITUS",NA,"HLT_0778",NA,"HLGT_0695",NA,"SKIN AND SUBCUTANEOUS TISSUE DISORDERS",NA,"SKIN AND SUBCUTANEOUS TISSUE DISORDERS",NA,"MODERATE","N",NA,"PROBABLE","NOT RECOVERED/NOT RESOLVED","N","N","N","N","N","N","N","2013-03-16","2013-02-16",NA,2,NA,"01-701-1188_4"
"CDISCPILOT01","AE","01-701-1188",5,"E06","URTICARIA","WELTS",NA,"URTICARIA",NA,"HLT_0420",NA,"HLGT_0705",NA,"SKIN AND SUBCUTANEOUS TISSUE DISORDERS",NA,"SKIN AND SUBCUTANEOUS TISSUE DISORDERS",NA,"MILD","N",NA,"PROBABLE","NOT RECOVERED/NOT RESOLVED","N","N","N","N","N","N","N","2013-03-16","2013-03-04",NA,18,NA,"01-701-1188_5"
"CDISCPILOT01","AE","01-701-1188",6,"E06","URTICARIA","WELTS",NA,"URTICARIA",NA,"HLT_0420",NA,"HLGT_0705",NA,"SKIN AND SUBCUTANEOUS TISSUE DISORDERS",NA,"SKIN AND SUBCUTANEOUS TISSUE DISORDERS",NA,"MODERATE","N",NA,"PROBABLE","NOT RECOVERED/NOT RESOLVED","N","N","N","N","N","N","N","2013-03-25","2013-03-04",NA,18,NA,"01-701-1188_6"
"CDISCPILOT01","AE","01-701-1188",8,"E10","URTICARIA","WELTS",NA,"URTICARIA",NA,"HLT_0420",NA,"HLGT_0705",NA,"SKIN AND SUBCUTANEOUS TISSUE DISORDERS",NA,"SKIN AND SUBCUTANEOUS TISSUE DISORDERS",NA,"MILD","N",NA,"PROBABLE","NOT RECOVERED/NOT RESOLVED","N","N","N","N","N","N","N","2013-03-25","2013-03-21",NA,35,NA,"01-701-1188_8"
"CDISCPILOT01","AE","01-701-1192",13,"E13","APPLICATION SITE ERYTHEMA","APPLICATION SITE REDNESS",NA,"APPLICATION SITE ERYTHEMA",NA,"HLT_0617",NA,"HLGT_0152",NA,"GENERAL DISORDERS AND ADMINISTRATION SITE CONDITIONS",NA,"GENERAL DISORDERS AND ADMINISTRATION SITE CONDITIONS",NA,"MILD","N",NA,"PROBABLE","NOT RECOVERED/NOT RESOLVED","N","N","N","N","N","N","N","2012-12-13","2012-12-05",NA,137,NA,"01-701-1192_13"
"CDISCPILOT01","AE","01-701-1192",12,"E12","APPLICATION SITE IRRITATION","APPLICATION SITE BURNING",NA,"APPLICATION SITE IRRITATION",NA,"HLT_0061",NA,"HLGT_0346",NA,"GENERAL DISORDERS AND ADMINISTRATION SITE CONDITIONS",NA,"GENERAL DISORDERS AND ADMINISTRATION SITE CONDITIONS",NA,"MILD","N",NA,"PROBABLE","NOT RECOVERED/NOT RESOLVED","N","N","N","N","N","N","N","2012-12-13","2012-12-05","2012-12-16",137,148,"01-701-1192_12"
"CDISCPILOT01","AE","01-701-1192",15,"E12","APPLICATION SITE IRRITATION","APPLICATION SITE BURNING",NA,"APPLICATION SITE IRRITATION",NA,"HLT_0061",NA,"HLGT_0346",NA,"GENERAL DISORDERS AND ADMINISTRATION SITE CONDITIONS",NA,"GENERAL DISORDERS AND ADMINISTRATION SITE CONDITIONS",NA,"MILD","N",NA,"PROBABLE","RECOVERED/RESOLVED","N","N","N","N","N","N","N","2013-01-11","2012-12-05","2012-12-16",137,148,"01-701-1192_15"
"CDISCPILOT01","AE","01-701-1192",14,"E14","APPLICATION SITE PRURITUS","APPLICATION SITE ITCHING",NA,"APPLICATION SITE PRURITUS",NA,"HLT_0317",NA,"HLGT_0338",NA,"GENERAL DISORDERS AND ADMINISTRATION SITE CONDITIONS",NA,"GENERAL DISORDERS AND ADMINISTRATION SITE CONDITIONS",NA,"MILD","N",NA,"PROBABLE","NOT RECOVERED/NOT RESOLVED","N","N","N","N","N","N","N","2012-12-13","2012-12-05",NA,137,NA,"01-701-1192_14"
"CDISCPILOT01","AE","01-701-1192",4,"E01","COUGH","COUGH",NA,"COUGH",NA,"HLT_0701",NA,"HLGT_0280",NA,"RESPIRATORY, THORACIC AND MEDIASTINAL DISORDERS",NA,"RESPIRATORY, THORACIC AND MEDIASTINAL DISORDERS",NA,"MODERATE","N",NA,"NONE","NOT RECOVERED/NOT RESOLVED","N","N","N","N","N","N","N","2012-09-23","2010-06",NA,NA,NA,"01-701-1192_4"
"CDISCPILOT01","AE","01-701-1192",9,"E01","COUGH","COUGH",NA,"COUGH",NA,"HLT_0701",NA,"HLGT_0280",NA,"RESPIRATORY, THORACIC AND MEDIASTINAL DISORDERS",NA,"RESPIRATORY, THORACIC AND MEDIASTINAL DISORDERS",NA,"MILD","N",NA,"NONE","NOT RECOVERED/NOT RESOLVED","N","N","N","N","N","N","N","2012-10-14","2010-06",NA,NA,NA,"01-701-1192_9"
"CDISCPILOT01","AE","01-701-1192",3,"E09","ERYTHEMA","ERYTHEMA FACIAL",NA,"ERYTHEMA",NA,"HLT_0284",NA,"HLGT_0192",NA,"SKIN AND SUBCUTANEOUS TISSUE DISORDERS",NA,"SKIN AND SUBCUTANEOUS TISSUE DISORDERS",NA,"MILD","N",NA,"NONE","NOT RECOVERED/NOT RESOLVED","N","N","N","N","N","N","N","2012-08-07","2012-08-07","2012-09-14",17,55,"01-701-1192_3"
"CDISCPILOT01","AE","01-701-1192",6,"E09","ERYTHEMA","ERYTHEMA FACIAL",NA,"ERYTHEMA",NA,"HLT_0284",NA,"HLGT_0192",NA,"SKIN AND SUBCUTANEOUS TISSUE DISORDERS",NA,"SKIN AND SUBCUTANEOUS TISSUE DISORDERS",NA,"MILD","N",NA,"NONE","RECOVERED/RESOLVED","N","N","N","N","N","N","N","2012-09-23","2012-08-07","2012-09-14",17,55,"01-701-1192_6"
"CDISCPILOT01","AE","01-701-1192",8,"E11","MUSCULAR WEAKNESS","MUSCULAR WEAKNESS",NA,"MUSCULAR WEAKNESS",NA,"HLT_0444",NA,"HLGT_0211",NA,"MUSCULOSKELETAL AND CONNECTIVE TISSUE DISORDERS",NA,"MUSCULOSKELETAL AND CONNECTIVE TISSUE DISORDERS",NA,"MODERATE","N",NA,"NONE","NOT RECOVERED/NOT RESOLVED","N","N","N","N","N","N","N","2012-09-23","2012-09-07","2012-09-30",48,71,"01-701-1192_8"
"CDISCPILOT01","AE","01-701-1192",11,"E11","MUSCULAR WEAKNESS","MUSCULAR WEAKNESS",NA,"MUSCULAR WEAKNESS",NA,"HLT_0444",NA,"HLGT_0211",NA,"MUSCULOSKELETAL AND CONNECTIVE TISSUE DISORDERS",NA,"MUSCULOSKELETAL AND CONNECTIVE TISSUE DISORDERS",NA,"MODERATE","N",NA,"NONE","RECOVERED/RESOLVED","N","N","N","N","N","N","N","2012-10-14","2012-09-07","2012-09-30",48,71,"01-701-1192_11"
"CDISCPILOT01","AE","01-701-1192",1,"E06","NASAL MUCOSA BIOPSY","NASAL MUCOSA BIOPSY",NA,"NASAL MUCOSA BIOPSY",NA,"HLT_0680",NA,"HLGT_0396",NA,"INVESTIGATIONS",NA,"INVESTIGATIONS",NA,"MILD","N",NA,"NONE","RECOVERED/RESOLVED","N","N","N","N","N","N","N","2012-08-07","2012-08-03","2012-08-03",13,13,"01-701-1192_1"
"CDISCPILOT01","AE","01-701-1192",7,"E10","PNEUMONIA","PNEUMONIA",NA,"PNEUMONIA",NA,"HLT_0251",NA,"HLGT_0671",NA,"INFECTIONS AND INFESTATIONS",NA,"INFECTIONS AND INFESTATIONS",NA,"MODERATE","N",NA,"NONE","NOT RECOVERED/NOT RESOLVED","N","N","N","N","Y","N","N","2012-09-23","2012-09-07","2012-10-06",48,77,"01-701-1192_7"
"CDISCPILOT01","AE","01-701-1192",10,"E10","PNEUMONIA","PNEUMONIA",NA,"PNEUMONIA",NA,"HLT_0251",NA,"HLGT_0671",NA,"INFECTIONS AND INFESTATIONS",NA,"INFECTIONS AND INFESTATIONS",NA,"MODERATE","N",NA,"NONE","RECOVERED/RESOLVED","N","N","N","N","Y","N","N","2012-10-14","2012-09-07","2012-10-06",48,77,"01-701-1192_10"
"CDISCPILOT01","AE","01-701-1192",2,"E08","SECRETION DISCHARGE","SECRETION DISCHARGE",NA,"SECRETION DISCHARGE",NA,"HLT_0683",NA,"HLGT_0575",NA,"GENERAL DISORDERS AND ADMINISTRATION SITE CONDITIONS",NA,"GENERAL DISORDERS AND ADMINISTRATION SITE CONDITIONS",NA,"MILD","N",NA,"NONE","NOT RECOVERED/NOT RESOLVED","N","N","N","N","N","N","N","2012-08-07","2012-08-07","2012-09-14",17,55,"01-701-1192_2"
"CDISCPILOT01","AE","01-701-1192",5,"E08","SECRETION DISCHARGE","SECRETION DISCHARGE",NA,"SECRETION DISCHARGE",NA,"HLT_0683",NA,"HLGT_0575",NA,"GENERAL DISORDERS AND ADMINISTRATION SITE CONDITIONS",NA,"GENERAL DISORDERS AND ADMINISTRATION SITE CONDITIONS",NA,"MILD","N",NA,"NONE","RECOVERED/RESOLVED","N","N","N","N","N","N","N","2012-09-23","2012-08-07","2012-09-14",17,55,"01-701-1192_5"
"CDISCPILOT01","AE","01-701-1203",1,"E05","EYE LASER SURGERY","EYE LASER SURGERY",NA,"EYE LASER SURGERY",NA,"HLT_0355",NA,"HLGT_0189",NA,"SURGICAL AND MEDICAL PROCEDURES",NA,"SURGICAL AND MEDICAL PROCEDURES",NA,"MILD","N",NA,"NONE","RECOVERED/RESOLVED","N","N","N","N","N","N","N","2013-03-30","2013-03-21","2013-03-21",48,48,"01-701-1203_1"
"CDISCPILOT01","AE","01-701-1211",5,"E05","APPLICATION SITE ERYTHEMA","APPLICATION SITE REDNESS",NA,"APPLICATION SITE ERYTHEMA",NA,"HLT_0617",NA,"HLGT_0152",NA,"GENERAL DISORDERS AND ADMINISTRATION SITE CONDITIONS",NA,"GENERAL DISORDERS AND ADMINISTRATION SITE CONDITIONS",NA,"MILD","N",NA,"POSSIBLE","NOT RECOVERED/NOT RESOLVED","N","N","N","N","N","N","N","2012-12-11","2012-11-29",NA,15,NA,"01-701-1211_5"
"CDISCPILOT01","AE","01-701-1211",1,"E08","APPLICATION SITE PRURITUS","APPLICATION SITE ITCHING",NA,"APPLICATION SITE PRURITUS",NA,"HLT_0317",NA,"HLGT_0338",NA,"GENERAL DISORDERS AND ADMINISTRATION SITE CONDITIONS",NA,"GENERAL DISORDERS AND ADMINISTRATION SITE CONDITIONS",NA,"MILD","N",NA,"POSSIBLE","NOT RECOVERED/NOT RESOLVED","N","N","N","N","N","N","N","2012-11-28","2012-11-16",NA,2,NA,"01-701-1211_1"
"CDISCPILOT01","AE","01-701-1211",7,"E12","CONFUSIONAL STATE","CONFUSION",NA,"CONFUSIONAL STATE",NA,"HLT_0642",NA,"HLGT_0329",NA,"PSYCHIATRIC DISORDERS",NA,"PSYCHIATRIC DISORDERS",NA,"MODERATE","N",NA,"NONE","NOT RECOVERED/NOT RESOLVED","N","N","N","N","N","N","N","2013-01-14","2013-01-11",NA,58,NA,"01-701-1211_7"
"CDISCPILOT01","AE","01-701-1211",8,"E13","DYSPNOEA","SHORTNESS OF BREATH",NA,"DYSPNOEA",NA,"HLT_0296",NA,"HLGT_0255",NA,"RESPIRATORY, THORACIC AND MEDIASTINAL DISORDERS",NA,"RESPIRATORY, THORACIC AND MEDIASTINAL DISORDERS",NA,"MODERATE","N",NA,"NONE","NOT RECOVERED/NOT RESOLVED","N","N","N","N","N","N","N","2013-01-14","2013-01-11",NA,58,NA,"01-701-1211_8"
"CDISCPILOT01","AE","01-701-1211",4,"E09","INCONTINENCE","INCONTINENCE",NA,"INCONTINENCE",NA,"HLT_0560",NA,"HLGT_0503",NA,"RENAL AND URINARY DISORDERS",NA,"RENAL AND URINARY DISORDERS",NA,"MILD","N",NA,"NONE","NOT RECOVERED/NOT RESOLVED","N","N","N","N","N","N","N","2012-11-28","2012-11-22",NA,8,NA,"01-701-1211_4"
"CDISCPILOT01","AE","01-701-1211",2,"E03","JOINT DISLOCATION","SHOULDER DISLOCATION",NA,"JOINT DISLOCATION",NA,"HLT_0035",NA,"HLGT_0227",NA,"INJURY, POISONING AND PROCEDURAL COMPLICATIONS",NA,"INJURY, POISONING AND PROCEDURAL COMPLICATIONS",NA,"MODERATE","N",NA,"NONE","RECOVERED/RESOLVED","N","N","N","N","N","N","N","2012-11-28","2012-11-21","2012-11-21",7,7,"01-701-1211_2"
"CDISCPILOT01","AE","01-701-1211",3,"E04","SHOULDER PAIN","SHOULDER PAIN",NA,"SHOULDER PAIN",NA,"HLT_0527",NA,"HLGT_0288",NA,"MUSCULOSKELETAL AND CONNECTIVE TISSUE DISORDERS",NA,"MUSCULOSKELETAL AND CONNECTIVE TISSUE DISORDERS",NA,"MILD","N",NA,"NONE","NOT RECOVERED/NOT RESOLVED","N","N","N","N","N","N","N","2012-11-28","2012-11-21",NA,7,NA,"01-701-1211_3"
"CDISCPILOT01","AE","01-701-1211",6,"E06","SKIN LACERATION","LACERATION OF FACE",NA,"SKIN LACERATION",NA,"HLT_0075",NA,"HLGT_0118",NA,"INJURY, POISONING AND PROCEDURAL COMPLICATIONS",NA,"INJURY, POISONING AND PROCEDURAL COMPLICATIONS",NA,"MILD","N",NA,"NONE","NOT RECOVERED/NOT RESOLVED","N","N","N","N","N","N","N","2012-12-11","2012-12-09",NA,25,NA,"01-701-1211_6"
"CDISCPILOT01","AE","01-701-1211",9,"E11","SUDDEN DEATH","SUDDEN DEATH",NA,"SUDDEN DEATH",NA,"HLT_0142",NA,"HLGT_0272",NA,"GENERAL DISORDERS AND ADMINISTRATION SITE CONDITIONS",NA,"GENERAL DISORDERS AND ADMINISTRATION SITE CONDITIONS",NA,"SEVERE","N",NA,"NONE","FATAL","N","N","N","Y","N","Y","N","2013-01-14","2013-01-14","2013-01-14",61,61,"01-701-1211_9"
"CDISCPILOT01","AE","01-701-1239",4,"E13","APPLICATION SITE IRRITATION","APPLICATION SITE IRRITATION",NA,"APPLICATION SITE IRRITATION",NA,"HLT_0061",NA,"HLGT_0346",NA,"GENERAL DISORDERS AND ADMINISTRATION SITE CONDITIONS",NA,"GENERAL DISORDERS AND ADMINISTRATION SITE CONDITIONS",NA,"MILD","N",NA,"PROBABLE","NOT RECOVERED/NOT RESOLVED","N","N","N","N","N","N","N","2014-01-25","2014-01-20","2014-02-08",10,29,"01-701-1239_4"
"CDISCPILOT01","AE","01-701-1239",5,"E13","APPLICATION SITE IRRITATION","APPLICATION SITE IRRITATION",NA,"APPLICATION SITE IRRITATION",NA,"HLT_0061",NA,"HLGT_0346",NA,"GENERAL DISORDERS AND ADMINISTRATION SITE CONDITIONS",NA,"GENERAL DISORDERS AND ADMINISTRATION SITE CONDITIONS",NA,"MILD","N",NA,"PROBABLE","RECOVERED/RESOLVED","N","N","N","N","N","N","N","2014-02-10","2014-01-20","2014-02-08",10,29,"01-701-1239_5"
"CDISCPILOT01","AE","01-701-1239",1,"E11","ERYTHEMA","ERYTHEMA",NA,"ERYTHEMA",NA,"HLT_0284",NA,"HLGT_0192",NA,"SKIN AND SUBCUTANEOUS TISSUE DISORDERS",NA,"SKIN AND SUBCUTANEOUS TISSUE DISORDERS",NA,"MILD","N",NA,"POSSIBLE","NOT RECOVERED/NOT RESOLVED","N","N","N","N","N","N","N","2014-01-25","2014-01-12",NA,2,NA,"01-701-1239_1"
"CDISCPILOT01","AE","01-701-1239",6,"E11","ERYTHEMA","ERYTHEMA",NA,"ERYTHEMA",NA,"HLT_0284",NA,"HLGT_0192",NA,"SKIN AND SUBCUTANEOUS TISSUE DISORDERS",NA,"SKIN AND SUBCUTANEOUS TISSUE DISORDERS",NA,"MODERATE","N",NA,"POSSIBLE","NOT RECOVERED/NOT RESOLVED","N","N","N","N","N","N","N","2014-02-19","2014-01-12",NA,2,NA,"01-701-1239_6"
"CDISCPILOT01","AE","01-701-1239",9,"E16","FATIGUE","FATIGUE",NA,"FATIGUE",NA,"HLT_0043",NA,"HLGT_0181",NA,"GENERAL DISORDERS AND ADMINISTRATION SITE CONDITIONS",NA,"GENERAL DISORDERS AND ADMINISTRATION SITE CONDITIONS",NA,"MILD","N",NA,"REMOTE","NOT RECOVERED/NOT RESOLVED","N","N","N","N","N","N","N","2014-04-02","2014-03",NA,NA,NA,"01-701-1239_9"
"CDISCPILOT01","AE","01-701-1239",10,"E17","HORDEOLUM","STYE",NA,"HORDEOLUM",NA,"HLT_0604",NA,"HLGT_0290",NA,"INFECTIONS AND INFESTATIONS",NA,"INFECTIONS AND INFESTATIONS",NA,"MILD","N",NA,"NONE","NOT RECOVERED/NOT RESOLVED","N","N","N","N","N","N","N","2014-05-02","2014-04",NA,NA,NA,"01-701-1239_10"
"CDISCPILOT01","AE","01-701-1239",3,"E12","PRURITUS","ITCHING",NA,"PRURITUS",NA,"HLT_0778",NA,"HLGT_0695",NA,"SKIN AND SUBCUTANEOUS TISSUE DISORDERS",NA,"SKIN AND SUBCUTANEOUS TISSUE DISORDERS",NA,"MILD","N",NA,"POSSIBLE","NOT RECOVERED/NOT RESOLVED","N","N","N","N","N","N","N","2014-01-25","2014-01-13",NA,3,NA,"01-701-1239_3"
"CDISCPILOT01","AE","01-701-1239",2,"E15","SKIN ODOUR ABNORMAL","SKIN ODOR ABNORMAL",NA,"SKIN ODOUR ABNORMAL",NA,"HLT_0510",NA,"HLGT_0184",NA,"SKIN AND SUBCUTANEOUS TISSUE DISORDERS",NA,"SKIN AND SUBCUTANEOUS TISSUE DISORDERS",NA,"MILD","N",NA,"REMOTE","NOT RECOVERED/NOT RESOLVED","N","N","N","N","N","N","N","2014-01-25","2014-01-12",NA,2,NA,"01-701-1239_2"
"CDISCPILOT01","AE","01-701-1239",7,"E14","UPPER RESPIRATORY TRACT INFECTION","UPPER RESPIRATORY INFECTION",NA,"UPPER RESPIRATORY TRACT INFECTION",NA,"HLT_0520",NA,"HLGT_0489",NA,"INFECTIONS AND INFESTATIONS",NA,"INFECTIONS AND INFESTATIONS",NA,"MILD","N",NA,"NONE","NOT RECOVERED/NOT RESOLVED","N","N","N","N","N","N","N","2014-03-06","2014-02-20","2014-03-12",41,61,"01-701-1239_7"
"CDISCPILOT01","AE","01-701-1239",8,"E14","UPPER RESPIRATORY TRACT INFECTION","UPPER RESPIRATORY INFECTION",NA,"UPPER RESPIRATORY TRACT INFECTION",NA,"HLT_0520",NA,"HLGT_0489",NA,"INFECTIONS AND INFESTATIONS",NA,"INFECTIONS AND INFESTATIONS",NA,"MILD","N",NA,"NONE","RECOVERED/RESOLVED","N","N","N","N","N","N","N","2014-04-02","2014-02-20","2014-03-12",41,61,"01-701-1239_8"
"CDISCPILOT01","AE","01-701-1275",7,"E09","COUGH","COUGH",NA,"COUGH",NA,"HLT_0701",NA,"HLGT_0280",NA,"RESPIRATORY, THORACIC AND MEDIASTINAL DISORDERS",NA,"RESPIRATORY, THORACIC AND MEDIASTINAL DISORDERS",NA,"MILD","N",NA,"NONE","NOT RECOVERED/NOT RESOLVED","N","N","N","N","N","N","N","2014-03-22","2014-03-12","2014-03-27",34,49,"01-701-1275_7"
"CDISCPILOT01","AE","01-701-1275",9,"E09","COUGH","COUGH",NA,"COUGH",NA,"HLT_0701",NA,"HLGT_0280",NA,"RESPIRATORY, THORACIC AND MEDIASTINAL DISORDERS",NA,"RESPIRATORY, THORACIC AND MEDIASTINAL DISORDERS",NA,"MILD","N",NA,"NONE","RECOVERED/RESOLVED","N","N","N","N","N","N","N","2014-04-05","2014-03-12","2014-03-27",34,49,"01-701-1275_9"
"CDISCPILOT01","AE","01-701-1275",3,"E06","ERYTHEMA","ERYTHEMA",NA,"ERYTHEMA",NA,"HLT_0284",NA,"HLGT_0192",NA,"SKIN AND SUBCUTANEOUS TISSUE DISORDERS",NA,"SKIN AND SUBCUTANEOUS TISSUE DISORDERS",NA,"MILD","N",NA,"POSSIBLE","NOT RECOVERED/NOT RESOLVED","N","N","N","N","N","N","N","2014-03-07","2014-02-24","2014-06-12",18,126,"01-701-1275_3"
"CDISCPILOT01","AE","01-701-1275",12,"E06","ERYTHEMA","ERYTHEMA",NA,"ERYTHEMA",NA,"HLT_0284",NA,"HLGT_0192",NA,"SKIN AND SUBCUTANEOUS TISSUE DISORDERS",NA,"SKIN AND SUBCUTANEOUS TISSUE DISORDERS",NA,"MILD","N",NA,"POSSIBLE","RECOVERED/RESOLVED","N","N","N","N","N","N","N","2014-06-14","2014-02-24","2014-06-12",18,126,"01-701-1275_12"
"CDISCPILOT01","AE","01-701-1275",8,"E10","NASAL CONGESTION","NASAL CONGESTION",NA,"NASAL CONGESTION",NA,"HLT_0118",NA,"HLGT_0549",NA,"RESPIRATORY, THORACIC AND MEDIASTINAL DISORDERS",NA,"RESPIRATORY, THORACIC AND MEDIASTINAL DISORDERS",NA,"MILD","N",NA,"NONE","NOT RECOVERED/NOT RESOLVED","N","N","N","N","N","N","N","2014-03-22","2014-03-12","2014-03-27",34,49,"01-701-1275_8"
"CDISCPILOT01","AE","01-701-1275",10,"E10","NASAL CONGESTION","NASAL CONGESTION",NA,"NASAL CONGESTION",NA,"HLT_0118",NA,"HLGT_0549",NA,"RESPIRATORY, THORACIC AND MEDIASTINAL DISORDERS",NA,"RESPIRATORY, THORACIC AND MEDIASTINAL DISORDERS",NA,"MILD","N",NA,"NONE","RECOVERED/RESOLVED","N","N","N","N","N","N","N","2014-04-05","2014-03-12","2014-03-27",34,49,"01-701-1275_10"
"CDISCPILOT01","AE","01-701-1275",1,"E04","NAUSEA","NAUSEA",NA,"NAUSEA",NA,"HLT_0742",NA,"HLGT_0326",NA,"GASTROINTESTINAL DISORDERS",NA,"GASTROINTESTINAL DISORDERS",NA,"MILD","N",NA,"POSSIBLE","NOT RECOVERED/NOT RESOLVED","N","N","N","N","N","N","N","2014-02-22","2014-02-13","2014-06-03",7,117,"01-701-1275_1"
"CDISCPILOT01","AE","01-701-1275",11,"E04","NAUSEA","NAUSEA",NA,"NAUSEA",NA,"HLT_0742",NA,"HLGT_0326",NA,"GASTROINTESTINAL DISORDERS",NA,"GASTROINTESTINAL DISORDERS",NA,"MILD","N",NA,"POSSIBLE","RECOVERED/RESOLVED","N","N","N","N","N","N","N","2014-06-14","2014-02-13","2014-06-03",7,117,"01-701-1275_11"
"CDISCPILOT01","AE","01-701-1275",5,"E08","PAROSMIA","STRANGE SMELL SENSATION",NA,"PAROSMIA",NA,"HLT_0258",NA,"HLGT_0471",NA,"NERVOUS SYSTEM DISORDERS",NA,"NERVOUS SYSTEM DISORDERS",NA,"MILD","N",NA,"POSSIBLE","NOT RECOVERED/NOT RESOLVED","N","N","N","N","N","N","N","2014-03-07","2014-02-24","2014-06-03",18,117,"01-701-1275_5"
"CDISCPILOT01","AE","01-701-1275",14,"E08","PAROSMIA","STRANGE SMELL SENSATION",NA,"PAROSMIA",NA,"HLT_0258",NA,"HLGT_0471",NA,"NERVOUS SYSTEM DISORDERS",NA,"NERVOUS SYSTEM DISORDERS",NA,"MILD","N",NA,"POSSIBLE","RECOVERED/RESOLVED","N","N","N","N","N","N","N","2014-06-14","2014-02-24","2014-06-03",18,117,"01-701-1275_14"
"CDISCPILOT01","AE","01-701-1275",6,"E11","PRURITUS","ITCHING",NA,"PRURITUS",NA,"HLT_0778",NA,"HLGT_0695",NA,"SKIN AND SUBCUTANEOUS TISSUE DISORDERS",NA,"SKIN AND SUBCUTANEOUS TISSUE DISORDERS",NA,"MILD","N",NA,"POSSIBLE","NOT RECOVERED/NOT RESOLVED","N","N","N","N","N","N","N","2014-03-07","2014-02-24","2014-06-12",18,126,"01-701-1275_6"
"CDISCPILOT01","AE","01-701-1275",15,"E11","PRURITUS","ITCHING",NA,"PRURITUS",NA,"HLT_0778",NA,"HLGT_0695",NA,"SKIN AND SUBCUTANEOUS TISSUE DISORDERS",NA,"SKIN AND SUBCUTANEOUS TISSUE DISORDERS",NA,"MILD","N",NA,"POSSIBLE","RECOVERED/RESOLVED","N","N","N","N","N","N","N","2014-06-14","2014-02-24","2014-06-12",18,126,"01-701-1275_15"
"CDISCPILOT01","AE","01-701-1275",4,"E07","SALIVARY HYPERSECRETION","HYPERSALIVATION",NA,"SALIVARY HYPERSECRETION",NA,"HLT_0374",NA,"HLGT_0488",NA,"GASTROINTESTINAL DISORDERS",NA,"GASTROINTESTINAL DISORDERS",NA,"MILD","N",NA,"POSSIBLE","NOT RECOVERED/NOT RESOLVED","N","N","N","N","N","N","N","2014-03-07","2014-02-24","2014-06-03",18,117,"01-701-1275_4"
"CDISCPILOT01","AE","01-701-1275",13,"E07","SALIVARY HYPERSECRETION","HYPERSALIVATION",NA,"SALIVARY HYPERSECRETION",NA,"HLT_0374",NA,"HLGT_0488",NA,"GASTROINTESTINAL DISORDERS",NA,"GASTROINTESTINAL DISORDERS",NA,"MILD","N",NA,"POSSIBLE","RECOVERED/RESOLVED","N","N","N","N","N","N","N","2014-06-14","2014-02-24","2014-06-03",18,117,"01-701-1275_13"
"CDISCPILOT01","AE","01-701-1275",2,"E05","VOMITING","VOMITING",NA,"VOMITING",NA,"HLT_0016",NA,"HLGT_0350",NA,"GASTROINTESTINAL DISORDERS",NA,"GASTROINTESTINAL DISORDERS",NA,"MILD","N",NA,"POSSIBLE","RECOVERED/RESOLVED","N","N","N","N","N","N","N","2014-03-07","2014-02-23","2014-02-23",17,17,"01-701-1275_2"
"CDISCPILOT01","AE","01-701-1287",3,"E04","APPLICATION SITE ERYTHEMA","APPLICATION SITE REDNESS",NA,"APPLICATION SITE ERYTHEMA",NA,"HLT_0617",NA,"HLGT_0152",NA,"GENERAL DISORDERS AND ADMINISTRATION SITE CONDITIONS",NA,"GENERAL DISORDERS AND ADMINISTRATION SITE CONDITIONS",NA,"MILD","N",NA,"PROBABLE","NOT RECOVERED/NOT RESOLVED","N","N","N","N","N","N","N","2014-03-21","2014-03-09",NA,44,NA,"01-701-1287_3"
"CDISCPILOT01","AE","01-701-1287",2,"E03","APPLICATION SITE PRURITUS","APPLICATION SITE ITCHING",NA,"APPLICATION SITE PRURITUS",NA,"HLT_0317",NA,"HLGT_0338",NA,"GENERAL DISORDERS AND ADMINISTRATION SITE CONDITIONS",NA,"GENERAL DISORDERS AND ADMINISTRATION SITE CONDITIONS",NA,"MILD","N",NA,"POSSIBLE","NOT RECOVERED/NOT RESOLVED","N","N","N","N","N","N","N","2014-03-06","2014-02-22",NA,29,NA,"01-701-1287_2"
"CDISCPILOT01","AE","01-701-1287",4,"E05","RHINORRHOEA","RUNNY NOSE",NA,"RHINORRHOEA",NA,"HLT_0635",NA,"HLGT_0460",NA,"RESPIRATORY, THORACIC AND MEDIASTINAL DISORDERS",NA,"RESPIRATORY, THORACIC AND MEDIASTINAL DISORDERS",NA,"MILD","N",NA,"NONE","NOT RECOVERED/NOT RESOLVED","N","N","N","N","N","N","N","2014-07-12","2014-07-09","2014-07-12",166,169,"01-701-1287_4"
"CDISCPILOT01","AE","01-701-1287",5,"E05","RHINORRHOEA","RUNNY NOSE",NA,"RHINORRHOEA",NA,"HLT_0635",NA,"HLGT_0460",NA,"RESPIRATORY, THORACIC AND MEDIASTINAL DISORDERS",NA,"RESPIRATORY, THORACIC AND MEDIASTINAL DISORDERS",NA,"MILD","N",NA,"NONE","RECOVERED/RESOLVED","N","N","N","N","N","N","N","2014-07-26","2014-07-09","2014-07-12",166,169,"01-701-1287_5"
"CDISCPILOT01","AE","01-701-1287",1,"E02","SALIVARY HYPERSECRETION","INCREASED SALIVATION",NA,"SALIVARY HYPERSECRETION",NA,"HLT_0374",NA,"HLGT_0488",NA,"GASTROINTESTINAL DISORDERS",NA,"GASTROINTESTINAL DISORDERS",NA,"MILD","N",NA,"NONE","NOT RECOVERED/NOT RESOLVED","N","N","N","N","N","N","N","2014-02-11","2014-01-26",NA,2,NA,"01-701-1287_1"
"CDISCPILOT01","AE","01-701-1294",3,"E08","APPLICATION SITE ERYTHEMA","APPLICATION SITE REDNESS",NA,"APPLICATION SITE ERYTHEMA",NA,"HLT_0617",NA,"HLGT_0152",NA,"GENERAL DISORDERS AND ADMINISTRATION SITE CONDITIONS",NA,"GENERAL DISORDERS AND ADMINISTRATION SITE CONDITIONS",NA,"MILD","N",NA,"PROBABLE","NOT RECOVERED/NOT RESOLVED","N","N","N","N","N","N","N","2013-05-22","2013-05-19",NA,57,NA,"01-701-1294_3"
"CDISCPILOT01","AE","01-701-1294",5,"E08","APPLICATION SITE ERYTHEMA","APPLICATION SITE REDNESS",NA,"APPLICATION SITE ERYTHEMA",NA,"HLT_0617",NA,"HLGT_0152",NA,"GENERAL DISORDERS AND ADMINISTRATION SITE CONDITIONS",NA,"GENERAL DISORDERS AND ADMINISTRATION SITE CONDITIONS",NA,"MODERATE","N",NA,"PROBABLE","NOT RECOVERED/NOT RESOLVED","N","N","N","N","N","N","N","2013-06-14","2013-05-19",NA,57,NA,"01-701-1294_5"
"CDISCPILOT01","AE","01-701-1294",1,"E06","APPLICATION SITE PRURITUS","APPLICATION SITE ITCHING",NA,"APPLICATION SITE PRURITUS",NA,"HLT_0317",NA,"HLGT_0338",NA,"GENERAL DISORDERS AND ADMINISTRATION SITE CONDITIONS",NA,"GENERAL DISORDERS AND ADMINISTRATION SITE CONDITIONS",NA,"MODERATE","N",NA,"NONE","RECOVERED/RESOLVED","N","N","N","N","N","N","N","2013-03-24","2013-03-22","2013-03-23",-2,-1,"01-701-1294_1"
"CDISCPILOT01","AE","01-701-1294",2,"E07","APPLICATION SITE PRURITUS","APPLICATION SITE ITCHING",NA,"APPLICATION SITE PRURITUS",NA,"HLT_0317",NA,"HLGT_0338",NA,"GENERAL DISORDERS AND ADMINISTRATION SITE CONDITIONS",NA,"GENERAL DISORDERS AND ADMINISTRATION SITE CONDITIONS",NA,"MILD","N",NA,"POSSIBLE","NOT RECOVERED/NOT RESOLVED","N","N","N","N","N","N","N","2013-05-22","2013-05-19",NA,57,NA,"01-701-1294_2"
"CDISCPILOT01","AE","01-701-1294",4,"E07","APPLICATION SITE PRURITUS","APPLICATION SITE ITCHING",NA,"APPLICATION SITE PRURITUS",NA,"HLT_0317",NA,"HLGT_0338",NA,"GENERAL DISORDERS AND ADMINISTRATION SITE CONDITIONS",NA,"GENERAL DISORDERS AND ADMINISTRATION SITE CONDITIONS",NA,"MODERATE","N",NA,"POSSIBLE","NOT RECOVERED/NOT RESOLVED","N","N","N","N","N","N","N","2013-06-14","2013-05-19",NA,57,NA,"01-701-1294_4"
"CDISCPILOT01","AE","01-701-1294",6,"E09","RASH ERYTHEMATOUS","ERYTHEMATOUS RASH",NA,"RASH ERYTHEMATOUS",NA,"HLT_0336",NA,"HLGT_0701",NA,"SKIN AND SUBCUTANEOUS TISSUE DISORDERS",NA,"SKIN AND SUBCUTANEOUS TISSUE DISORDERS",NA,"MODERATE","N",NA,"PROBABLE","NOT RECOVERED/NOT RESOLVED","N","N","N","N","N","N","N","2013-06-14","2013-06-10",NA,79,NA,"01-701-1294_6"
"CDISCPILOT01","AE","01-701-1302",16,"E27","APPLICATION SITE ERYTHEMA","APPLICATION SITE REDNESS",NA,"APPLICATION SITE ERYTHEMA",NA,"HLT_0617",NA,"HLGT_0152",NA,"GENERAL DISORDERS AND ADMINISTRATION SITE CONDITIONS",NA,"GENERAL DISORDERS AND ADMINISTRATION SITE CONDITIONS",NA,"MILD","N",NA,"PROBABLE","NOT RECOVERED/NOT RESOLVED","N","N","N","N","N","N","N","2013-10-22","2013-10-15",NA,48,NA,"01-701-1302_16"
"CDISCPILOT01","AE","01-701-1302",1,"E21","APPLICATION SITE PERSPIRATION","APPLICATION SITE PERSPIRATION",NA,"APPLICATION SITE PERSPIRATION",NA,"HLT_0283",NA,"HLGT_0403",NA,"GENERAL DISORDERS AND ADMINISTRATION SITE CONDITIONS",NA,"GENERAL DISORDERS AND ADMINISTRATION SITE CONDITIONS",NA,"MILD","N",NA,"POSSIBLE","NOT RECOVERED/NOT RESOLVED","N","N","N","N","N","N","N","2013-09-15","2013-08-30",NA,2,NA,"01-701-1302_1"
"CDISCPILOT01","AE","01-701-1302",17,"E28","APPLICATION SITE PRURITUS","APPLICATION SITE ITCHING",NA,"APPLICATION SITE PRURITUS",NA,"HLT_0317",NA,"HLGT_0338",NA,"GENERAL DISORDERS AND ADMINISTRATION SITE CONDITIONS",NA,"GENERAL DISORDERS AND ADMINISTRATION SITE CONDITIONS",NA,"MILD","N",NA,"PROBABLE","NOT RECOVERED/NOT RESOLVED","N","N","N","N","N","N","N","2013-10-22","2013-10-15",NA,48,NA,"01-701-1302_17"
"CDISCPILOT01","AE","01-701-1302",12,"E19","CONTUSION","BRUISE",NA,"CONTUSION",NA,"HLT_0713",NA,"HLGT_0381",NA,"INJURY, POISONING AND PROCEDURAL COMPLICATIONS",NA,"INJURY, POISONING AND PROCEDURAL COMPLICATIONS",NA,"MILD","N",NA,"REMOTE","NOT RECOVERED/NOT RESOLVED","N","N","N","N","N","N","N","2013-09-15","2013-09-05","2013-10-08",8,41,"01-701-1302_12"
"CDISCPILOT01","AE","01-701-1302",15,"E19","CONTUSION","BRUISE",NA,"CONTUSION",NA,"HLT_0713",NA,"HLGT_0381",NA,"INJURY, POISONING AND PROCEDURAL COMPLICATIONS",NA,"INJURY, POISONING AND PROCEDURAL COMPLICATIONS",NA,"MILD","N",NA,"REMOTE","RECOVERED/RESOLVED","N","N","N","N","N","N","N","2013-10-22","2013-09-05","2013-10-08",8,41,"01-701-1302_15"
"CDISCPILOT01","AE","01-701-1302",9,"E17","DIZZINESS","DIZZY",NA,"DIZZINESS",NA,"HLT_0619",NA,"HLGT_0751",NA,"NERVOUS SYSTEM DISORDERS",NA,"NERVOUS SYSTEM DISORDERS",NA,"MODERATE","N",NA,"REMOTE","RECOVERED/RESOLVED","N","N","N","N","N","N","N","2013-09-15","2013-09-02","2013-09-03",5,6,"01-701-1302_9"
"CDISCPILOT01","AE","01-701-1302",11,"E20","DIZZINESS","LIGHTHEADEDNESS",NA,"DIZZINESS",NA,"HLT_0619",NA,"HLGT_0751",NA,"NERVOUS SYSTEM DISORDERS",NA,"NERVOUS SYSTEM DISORDERS",NA,"MILD","N",NA,"POSSIBLE","NOT RECOVERED/NOT RESOLVED","N","N","N","N","N","N","N","2013-09-15","2013-09-04",NA,7,NA,"01-701-1302_11"
"CDISCPILOT01","AE","01-701-1302",14,"E25","EPISTAXIS","NOSE BLEED",NA,"EPISTAXIS",NA,"HLT_0386",NA,"HLGT_0577",NA,"RESPIRATORY, THORACIC AND MEDIASTINAL DISORDERS",NA,"RESPIRATORY, THORACIC AND MEDIASTINAL DISORDERS",NA,"MILD","N",NA,"REMOTE","NOT RECOVERED/NOT RESOLVED","N","N","N","N","N","N","N","2013-10-08","2013-09-30",NA,33,NA,"01-701-1302_14"
"CDISCPILOT01","AE","01-701-1302",21,"E31","FEELING ABNORMAL","FOGGY FEELING IN HEAD",NA,"FEELING ABNORMAL",NA,"HLT_0524",NA,"HLGT_0749",NA,"GENERAL DISORDERS AND ADMINISTRATION SITE CONDITIONS",NA,"GENERAL DISORDERS AND ADMINISTRATION SITE CONDITIONS",NA,"MILD","N",NA,"POSSIBLE","NOT RECOVERED/NOT RESOLVED","N","N","N","N","N","N","N","2013-11-05","2013-10-24",NA,57,NA,"01-701-1302_21"
"CDISCPILOT01","AE","01-701-1302",13,"E23","HEADACHE","HEADACHE",NA,"HEADACHE",NA,"HLT_0064",NA,"HLGT_0344",NA,"NERVOUS SYSTEM DISORDERS",NA,"NERVOUS SYSTEM DISORDERS",NA,"MILD","N",NA,"NONE","NOT RECOVERED/NOT RESOLVED","N","N","N","N","N","N","N","2013-09-15","2013-09-15",NA,18,NA,"01-701-1302_13"
"CDISCPILOT01","AE","01-701-1302",2,"E24","HYPERHIDROSIS","PERSPIRATION EXCESSIVE",NA,"HYPERHIDROSIS",NA,"HLT_0587",NA,"HLGT_0005",NA,"SKIN AND SUBCUTANEOUS TISSUE DISORDERS",NA,"SKIN AND SUBCUTANEOUS TISSUE DISORDERS",NA,"MILD","N",NA,"POSSIBLE","NOT RECOVERED/NOT RESOLVED","N","N","N","N","N","N","N","2013-09-15","2013-08-30",NA,2,NA,"01-701-1302_2"
"CDISCPILOT01","AE","01-701-1302",23,"E33","LIBIDO DECREASED","LIBIDO DECREASED",NA,"LIBIDO DECREASED",NA,"HLT_0338",NA,"HLGT_0496",NA,"PSYCHIATRIC DISORDERS",NA,"PSYCHIATRIC DISORDERS",NA,"MILD","N",NA,"POSSIBLE","NOT RECOVERED/NOT RESOLVED","N","N","N","N","N","N","N","2013-11-05","2013-10-24",NA,57,NA,"01-701-1302_23"
"CDISCPILOT01","AE","01-701-1302",22,"E32","LISTLESS","LISTLESSNESS",NA,"LISTLESS",NA,"HLT_0657",NA,"HLGT_0124",NA,"PSYCHIATRIC DISORDERS",NA,"PSYCHIATRIC DISORDERS",NA,"MILD","N",NA,"POSSIBLE","NOT RECOVERED/NOT RESOLVED","N","N","N","N","N","N","N","2013-11-05","2013-10-24",NA,57,NA,"01-701-1302_22"
"CDISCPILOT01","AE","01-701-1302",8,"E16","MALAISE","MALAISE",NA,"MALAISE",NA,"HLT_0456",NA,"HLGT_0178",NA,"GENERAL DISORDERS AND ADMINISTRATION SITE CONDITIONS",NA,"GENERAL DISORDERS AND ADMINISTRATION SITE CONDITIONS",NA,"MILD","N",NA,"REMOTE","NOT RECOVERED/NOT RESOLVED","N","N","N","N","N","N","N","2013-09-15","2013-09-02",NA,5,NA,"01-701-1302_8"
"CDISCPILOT01","AE","01-701-1302",18,"E16","MALAISE","MALAISE",NA,"MALAISE",NA,"HLT_0456",NA,"HLGT_0178",NA,"GENERAL DISORDERS AND ADMINISTRATION SITE CONDITIONS",NA,"GENERAL DISORDERS AND ADMINISTRATION SITE CONDITIONS",NA,"MODERATE","N",NA,"REMOTE","NOT RECOVERED/NOT RESOLVED","N","N","N","N","N","N","N","2013-11-05","2013-09-02",NA,5,NA,"01-701-1302_18"
"CDISCPILOT01","AE","01-701-1302",10,"E18","MYALGIA","MYALGIA",NA,"MYALGIA",NA,"HLT_0700",NA,"HLGT_0121",NA,"MUSCULOSKELETAL AND CONNECTIVE TISSUE DISORDERS",NA,"MUSCULOSKELETAL AND CONNECTIVE TISSUE DISORDERS",NA,"MILD","N",NA,"POSSIBLE","NOT RECOVERED/NOT RESOLVED","N","N","N","N","N","N","N","2013-09-15","2013-09-02",NA,5,NA,"01-701-1302_10"
"CDISCPILOT01","AE","01-701-1302",5,"E13","NASAL CONGESTION","NASAL CONGESTION",NA,"NASAL CONGESTION",NA,"HLT_0118",NA,"HLGT_0549",NA,"RESPIRATORY, THORACIC AND MEDIASTINAL DISORDERS",NA,"RESPIRATORY, THORACIC AND MEDIASTINAL DISORDERS",NA,"MILD","N",NA,"NONE","NOT RECOVERED/NOT RESOLVED","N","N","N","N","N","N","N","2013-09-15","2013-09-01",NA,4,NA,"01-701-1302_5"
"CDISCPILOT01","AE","01-701-1302",4,"E22","PAIN","STINGING",NA,"PAIN",NA,"HLT_0314",NA,"HLGT_0478",NA,"GENERAL DISORDERS AND ADMINISTRATION SITE CONDITIONS",NA,"GENERAL DISORDERS AND ADMINISTRATION SITE CONDITIONS",NA,"MILD","N",NA,"POSSIBLE","NOT RECOVERED/NOT RESOLVED","N","N","N","N","N","N","N","2013-09-15","2013-08-31",NA,3,NA,"01-701-1302_4"
"CDISCPILOT01","AE","01-701-1302",6,"E14","PHARYNGOLARYNGEAL PAIN","SORE THROAT",NA,"PHARYNGOLARYNGEAL PAIN",NA,"HLT_0130",NA,"HLGT_0402",NA,"RESPIRATORY, THORACIC AND MEDIASTINAL DISORDERS",NA,"RESPIRATORY, THORACIC AND MEDIASTINAL DISORDERS",NA,"MILD","N",NA,"NONE","NOT RECOVERED/NOT RESOLVED","N","N","N","N","N","N","N","2013-09-15","2013-09-02",NA,5,NA,"01-701-1302_6"
"CDISCPILOT01","AE","01-701-1302",7,"E15","PRODUCTIVE COUGH","PRODUCTIVE COUGH",NA,"PRODUCTIVE COUGH",NA,"HLT_0545",NA,"HLGT_0681",NA,"RESPIRATORY, THORACIC AND MEDIASTINAL DISORDERS",NA,"RESPIRATORY, THORACIC AND MEDIASTINAL DISORDERS",NA,"MILD","N",NA,"NONE","NOT RECOVERED/NOT RESOLVED","N","N","N","N","N","N","N","2013-09-15","2013-09-02",NA,5,NA,"01-701-1302_7"
"CDISCPILOT01","AE","01-701-1302",19,"E29","RESPIRATORY TRACT CONGESTION","RESPIRATORY TRACT CONGESTION",NA,"RESPIRATORY TRACT CONGESTION",NA,"HLT_0330",NA,"HLGT_0424",NA,"RESPIRATORY, THORACIC AND MEDIASTINAL DISORDERS",NA,"RESPIRATORY, THORACIC AND MEDIASTINAL DISORDERS",NA,"MILD","N",NA,"NONE","NOT RECOVERED/NOT RESOLVED","N","N","N","N","N","N","N","2013-11-05","2013-10-23",NA,56,NA,"01-701-1302_19"
"CDISCPILOT01","AE","01-701-1302",20,"E30","RHINITIS","CORYZA",NA,"RHINITIS",NA,"HLT_0239",NA,"HLGT_0322",NA,"INFECTIONS AND INFESTATIONS",NA,"INFECTIONS AND INFESTATIONS",NA,"MILD","N",NA,"NONE","NOT RECOVERED/NOT RESOLVED","N","N","N","N","N","N","N","2013-11-05","2013-10-23",NA,56,NA,"01-701-1302_20"
"CDISCPILOT01","AE","01-701-1302",3,"E26","STOMACH DISCOMFORT","STOMACH UPSET",NA,"STOMACH DISCOMFORT",NA,"HLT_0065",NA,"HLGT_0183",NA,"GASTROINTESTINAL DISORDERS",NA,"GASTROINTESTINAL DISORDERS",NA,"MILD","N",NA,"POSSIBLE","NOT RECOVERED/NOT RESOLVED","N","N","N","N","N","N","N","2013-09-15","2013-08-30",NA,2,NA,"01-701-1302_3"
"CDISCPILOT01","AE","01-701-1317",3,"E13","APPLICATION SITE ERYTHEMA","APPLICATION SITE REDNESS",NA,"APPLICATION SITE ERYTHEMA",NA,"HLT_0617",NA,"HLGT_0152",NA,"GENERAL DISORDERS AND ADMINISTRATION SITE CONDITIONS",NA,"GENERAL DISORDERS AND ADMINISTRATION SITE CONDITIONS",NA,"MILD","N",NA,"POSSIBLE","NOT RECOVERED/NOT RESOLVED","N","N","N","N","N","N","N","2014-07-03","2014-06-23",NA,33,NA,"01-701-1317_3"
"CDISCPILOT01","AE","01-701-1317",4,"E14","APPLICATION SITE PRURITUS","APPLICATION SITE ITCHING",NA,"APPLICATION SITE PRURITUS",NA,"HLT_0317",NA,"HLGT_0338",NA,"GENERAL DISORDERS AND ADMINISTRATION SITE CONDITIONS",NA,"GENERAL DISORDERS AND ADMINISTRATION SITE CONDITIONS",NA,"MILD","N",NA,"POSSIBLE","NOT RECOVERED/NOT RESOLVED","N","N","N","N","N","N","N","2014-07-03","2014-06-23",NA,33,NA,"01-701-1317_4"
"CDISCPILOT01","AE","01-701-1317",5,"E15","APPLICATION SITE URTICARIA","APPLICATION SITE URTICARIA",NA,"APPLICATION SITE URTICARIA",NA,"HLT_0196",NA,"HLGT_0233",NA,"GENERAL DISORDERS AND ADMINISTRATION SITE CONDITIONS",NA,"GENERAL DISORDERS AND ADMINISTRATION SITE CONDITIONS",NA,"MILD","N",NA,"POSSIBLE","NOT RECOVERED/NOT RESOLVED","N","N","N","N","N","N","N","2014-07-03","2014-06-23",NA,33,NA,"01-701-1317_5"
"CDISCPILOT01","AE","01-701-1317",2,"E12","CYST","CYST",NA,"CYST",NA,"HLT_0763",NA,"HLGT_0341",NA,"GENERAL DISORDERS AND ADMINISTRATION SITE CONDITIONS",NA,"GENERAL DISORDERS AND ADMINISTRATION SITE CONDITIONS",NA,"MILD","N",NA,"NONE","NOT RECOVERED/NOT RESOLVED","N","N","N","N","N","N","N","2014-05-20","2014-05-13",NA,-9,NA,"01-701-1317_2"
"CDISCPILOT01","AE","01-701-1317",6,"E16","DEPRESSED MOOD","DEPRESSED MOOD",NA,"DEPRESSED MOOD",NA,"HLT_0784",NA,"HLGT_0122",NA,"PSYCHIATRIC DISORDERS",NA,"PSYCHIATRIC DISORDERS",NA,"MILD","N",NA,"POSSIBLE","NOT RECOVERED/NOT RESOLVED","N","N","N","N","N","N","N","2014-07-22","2014-07-04",NA,44,NA,"01-701-1317_6"
"CDISCPILOT01","AE","01-701-1317",7,"E16","DEPRESSED MOOD","DEPRESSED MOOD",NA,"DEPRESSED MOOD",NA,"HLT_0784",NA,"HLGT_0122",NA,"PSYCHIATRIC DISORDERS",NA,"PSYCHIATRIC DISORDERS",NA,"MODERATE","N",NA,"POSSIBLE","NOT RECOVERED/NOT RESOLVED","N","N","N","N","N","N","N","2014-10-09","2014-07-04",NA,44,NA,"01-701-1317_7"
"CDISCPILOT01","AE","01-701-1317",9,"E18","DYSPHONIA","HOARSENESS",NA,"DYSPHONIA",NA,"HLT_0073",NA,"HLGT_0274",NA,"RESPIRATORY, THORACIC AND MEDIASTINAL DISORDERS",NA,"RESPIRATORY, THORACIC AND MEDIASTINAL DISORDERS",NA,"MILD","N",NA,"REMOTE","NOT RECOVERED/NOT RESOLVED","N","N","N","N","N","N","N","2014-11-06","2014-11-03",NA,166,NA,"01-701-1317_9"
"CDISCPILOT01","AE","01-701-1317",8,"E17","FATIGUE","TIREDNESS",NA,"FATIGUE",NA,"HLT_0043",NA,"HLGT_0181",NA,"GENERAL DISORDERS AND ADMINISTRATION SITE CONDITIONS",NA,"GENERAL DISORDERS AND ADMINISTRATION SITE CONDITIONS",NA,"MILD","N",NA,"REMOTE","NOT RECOVERED/NOT RESOLVED","N","N","N","N","N","N","N","2014-10-09","2014-09-12",NA,114,NA,"01-701-1317_8"
"CDISCPILOT01","AE","01-701-1317",1,"E11","ONYCHOMYCOSIS","ONYCHOMYCOSIS",NA,"ONYCHOMYCOSIS",NA,"HLT_0275",NA,"HLGT_0243",NA,"INFECTIONS AND INFESTATIONS",NA,"INFECTIONS AND INFESTATIONS",NA,"MILD","N",NA,"NONE","NOT RECOVERED/NOT RESOLVED","N","N","N","N","N","N","N","2014-05-20","2014-05-13",NA,-9,NA,"01-701-1317_1"
"CDISCPILOT01","AE","01-701-1324",1,"E04","APPLICATION SITE ERYTHEMA","APPLICATION SITE ERYTHEMA",NA,"APPLICATION SITE ERYTHEMA",NA,"HLT_0617",NA,"HLGT_0152",NA,"GENERAL DISORDERS AND ADMINISTRATION SITE CONDITIONS",NA,"GENERAL DISORDERS AND ADMINISTRATION SITE CONDITIONS",NA,"MILD","N",NA,"PROBABLE","NOT RECOVERED/NOT RESOLVED","N","N","N","N","N","N","N","2012-10-30","2012-10-22",NA,21,NA,"01-701-1324_1"
"CDISCPILOT01","AE","01-701-1324",2,"E06","APPLICATION SITE PRURITUS","APPLICATION SITE ITCHING",NA,"APPLICATION SITE PRURITUS",NA,"HLT_0317",NA,"HLGT_0338",NA,"GENERAL DISORDERS AND ADMINISTRATION SITE CONDITIONS",NA,"GENERAL DISORDERS AND ADMINISTRATION SITE CONDITIONS",NA,"MILD","N",NA,"PROBABLE","NOT RECOVERED/NOT RESOLVED","N","N","N","N","N","N","N","2012-12-25","2012-12-02",NA,62,NA,"01-701-1324_2"
"CDISCPILOT01","AE","01-701-1324",3,"E05","APPLICATION SITE VESICLES","APPLICATION SITE BLISTER",NA,"APPLICATION SITE VESICLES",NA,"HLT_0180",NA,"HLGT_0576",NA,"GENERAL DISORDERS AND ADMINISTRATION SITE CONDITIONS",NA,"GENERAL DISORDERS AND ADMINISTRATION SITE CONDITIONS",NA,"MILD","N",NA,"PROBABLE","NOT RECOVERED/NOT RESOLVED","N","N","N","N","N","N","N","2012-12-25","2012-12-25","2013-01-16",85,107,"01-701-1324_3"
"CDISCPILOT01","AE","01-701-1324",4,"E05","APPLICATION SITE VESICLES","APPLICATION SITE BLISTER",NA,"APPLICATION SITE VESICLES",NA,"HLT_0180",NA,"HLGT_0576",NA,"GENERAL DISORDERS AND ADMINISTRATION SITE CONDITIONS",NA,"GENERAL DISORDERS AND ADMINISTRATION SITE CONDITIONS",NA,"MILD","N",NA,"PROBABLE","RECOVERED/RESOLVED","N","N","N","N","N","N","N","2013-01-22","2012-12-25","2013-01-16",85,107,"01-701-1324_4"
"CDISCPILOT01","AE","01-701-1341",2,"E10","APPLICATION SITE ERYTHEMA","APPLICATION SITE REDNESS",NA,"APPLICATION SITE ERYTHEMA",NA,"HLT_0617",NA,"HLGT_0152",NA,"GENERAL DISORDERS AND ADMINISTRATION SITE CONDITIONS",NA,"GENERAL DISORDERS AND ADMINISTRATION SITE CONDITIONS",NA,"MODERATE","N",NA,"PROBABLE","NOT RECOVERED/NOT RESOLVED","N","N","N","N","N","N","N","2013-02-07","2013-01-19",NA,15,NA,"01-701-1341_2"
"CDISCPILOT01","AE","01-701-1341",4,"E12","APPLICATION SITE ERYTHEMA","APPLICATION SITE REDNESS",NA,"APPLICATION SITE ERYTHEMA",NA,"HLT_0617",NA,"HLGT_0152",NA,"GENERAL DISORDERS AND ADMINISTRATION SITE CONDITIONS",NA,"GENERAL DISORDERS AND ADMINISTRATION SITE CONDITIONS",NA,"MODERATE","N",NA,"PROBABLE","NOT RECOVERED/NOT RESOLVED","N","N","N","N","N","N","N","2013-02-07","2013-01-26",NA,22,NA,"01-701-1341_4"
"CDISCPILOT01","AE","01-701-1341",5,"E13","APPLICATION SITE IRRITATION","APPLICATION SITE BURNING",NA,"APPLICATION SITE IRRITATION",NA,"HLT_0061",NA,"HLGT_0346",NA,"GENERAL DISORDERS AND ADMINISTRATION SITE CONDITIONS",NA,"GENERAL DISORDERS AND ADMINISTRATION SITE CONDITIONS",NA,"MODERATE","N",NA,"PROBABLE","RECOVERED/RESOLVED","N","N","N","N","N","N","N","2013-02-07","2013-01-26","2013-01-30",22,26,"01-701-1341_5"
"CDISCPILOT01","AE","01-701-1341",1,"E09","APPLICATION SITE PRURITUS","APPLICATION SITE ITCHING",NA,"APPLICATION SITE PRURITUS",NA,"HLT_0317",NA,"HLGT_0338",NA,"GENERAL DISORDERS AND ADMINISTRATION SITE CONDITIONS",NA,"GENERAL DISORDERS AND ADMINISTRATION SITE CONDITIONS",NA,"MODERATE","N",NA,"PROBABLE","NOT RECOVERED/NOT RESOLVED","N","N","N","N","N","N","N","2013-02-07","2013-01-19",NA,15,NA,"01-701-1341_1"
"CDISCPILOT01","AE","01-701-1341",3,"E11","APPLICATION SITE PRURITUS","APPLICATION SITE ITCHING",NA,"APPLICATION SITE PRURITUS",NA,"HLT_0317",NA,"HLGT_0338",NA,"GENERAL DISORDERS AND ADMINISTRATION SITE CONDITIONS",NA,"GENERAL DISORDERS AND ADMINISTRATION SITE CONDITIONS",NA,"MODERATE","N",NA,"PROBABLE","RECOVERED/RESOLVED","N","N","N","N","N","N","N","2013-02-07","2013-01-26","2013-01-30",22,26,"01-701-1341_3"
"CDISCPILOT01","AE","01-701-1360",1,"E08","APPLICATION SITE ERYTHEMA","APPLICATION SITE ERYTHEMA",NA,"APPLICATION SITE ERYTHEMA",NA,"HLT_0617",NA,"HLGT_0152",NA,"GENERAL DISORDERS AND ADMINISTRATION SITE CONDITIONS",NA,"GENERAL DISORDERS AND ADMINISTRATION SITE CONDITIONS",NA,"MODERATE","N",NA,"PROBABLE","NOT RECOVERED/NOT RESOLVED","N","N","N","N","N","N","N","2013-08-14","2013-08-02",NA,3,NA,"01-701-1360_1"
"CDISCPILOT01","AE","01-701-1360",2,"E09","APPLICATION SITE PRURITUS","APPLICATION SITE ITCHING",NA,"APPLICATION SITE PRURITUS",NA,"HLT_0317",NA,"HLGT_0338",NA,"GENERAL DISORDERS AND ADMINISTRATION SITE CONDITIONS",NA,"GENERAL DISORDERS AND ADMINISTRATION SITE CONDITIONS",NA,"MODERATE","N",NA,"PROBABLE","NOT RECOVERED/NOT RESOLVED","N","N","N","N","N","N","N","2013-08-14","2013-08-02",NA,3,NA,"01-701-1360_2"
"CDISCPILOT01","AE","01-701-1360",3,"E10","APPLICATION SITE VESICLES","APPLICATION SITE BLISTER",NA,"APPLICATION SITE VESICLES",NA,"HLT_0180",NA,"HLGT_0576",NA,"GENERAL DISORDERS AND ADMINISTRATION SITE CONDITIONS",NA,"GENERAL DISORDERS AND ADMINISTRATION SITE CONDITIONS",NA,"MODERATE","N",NA,"PROBABLE","NOT RECOVERED/NOT RESOLVED","N","N","N","N","N","N","N","2013-08-14","2013-08-05",NA,6,NA,"01-701-1360_3"
"CDISCPILOT01","AE","01-701-1363",3,"E11","APPLICATION SITE PRURITUS","APPLICATION SITE ITCHING",NA,"APPLICATION SITE PRURITUS",NA,"HLT_0317",NA,"HLGT_0338",NA,"GENERAL DISORDERS AND ADMINISTRATION SITE CONDITIONS",NA,"GENERAL DISORDERS AND ADMINISTRATION SITE CONDITIONS",NA,"MILD","N",NA,"PROBABLE","NOT RECOVERED/NOT RESOLVED","N","N","N","N","N","N","N","2013-07-24","2013-07-16",NA,48,NA,"01-701-1363_3"
"CDISCPILOT01","AE","01-701-1363",5,"E13","BACK PAIN","BACKACHE",NA,"BACK PAIN",NA,"HLT_0115",NA,"HLGT_0508",NA,"MUSCULOSKELETAL AND CONNECTIVE TISSUE DISORDERS",NA,"MUSCULOSKELETAL AND CONNECTIVE TISSUE DISORDERS",NA,"MILD","N",NA,"NONE","NOT RECOVERED/NOT RESOLVED","N","N","N","N","N","N","N","2013-10-14","2013-10-13","2013-10-15",137,139,"01-701-1363_5"
"CDISCPILOT01","AE","01-701-1363",6,"E13","BACK PAIN","BACKACHE",NA,"BACK PAIN",NA,"HLT_0115",NA,"HLGT_0508",NA,"MUSCULOSKELETAL AND CONNECTIVE TISSUE DISORDERS",NA,"MUSCULOSKELETAL AND CONNECTIVE TISSUE DISORDERS",NA,"MILD","N",NA,"NONE","RECOVERED/RESOLVED","N","N","N","N","N","N","N","2013-11-13","2013-10-13","2013-10-15",137,139,"01-701-1363_6"
"CDISCPILOT01","AE","01-701-1363",2,"E03","HEADACHE","HEADACHE",NA,"HEADACHE",NA,"HLT_0064",NA,"HLGT_0344",NA,"NERVOUS SYSTEM DISORDERS",NA,"NERVOUS SYSTEM DISORDERS",NA,"MODERATE","N",NA,"POSSIBLE","NOT RECOVERED/NOT RESOLVED","N","N","N","N","N","N","N","2013-07-24","1986",NA,NA,NA,"01-701-1363_2"
"CDISCPILOT01","AE","01-701-1363",4,"E03","HEADACHE","HEADACHE",NA,"HEADACHE",NA,"HLT_0064",NA,"HLGT_0344",NA,"NERVOUS SYSTEM DISORDERS",NA,"NERVOUS SYSTEM DISORDERS",NA,"MILD","N",NA,"POSSIBLE","NOT RECOVERED/NOT RESOLVED","N","N","N","N","N","N","N","2013-10-14","1986",NA,NA,NA,"01-701-1363_4"
"CDISCPILOT01","AE","01-701-1363",1,"E09","NAUSEA","NAUSEA",NA,"NAUSEA",NA,"HLT_0742",NA,"HLGT_0326",NA,"GASTROINTESTINAL DISORDERS",NA,"GASTROINTESTINAL DISORDERS",NA,"MILD","N",NA,"REMOTE","RECOVERED/RESOLVED","N","N","N","N","N","N","N","2013-06-25","2013-06-14","2013-06-15",16,17,"01-701-1363_1"
"CDISCPILOT01","AE","01-701-1383",3,"E06","APPLICATION SITE ERYTHEMA","APPLICATION SITE ERYTHEMA",NA,"APPLICATION SITE ERYTHEMA",NA,"HLT_0617",NA,"HLGT_0152",NA,"GENERAL DISORDERS AND ADMINISTRATION SITE CONDITIONS",NA,"GENERAL DISORDERS AND ADMINISTRATION SITE CONDITIONS",NA,"MILD","N",NA,"POSSIBLE","RECOVERED/RESOLVED","N","N","N","N","N","N","N","2013-04-02","2013-03-23","2013-03-26",48,51,"01-701-1383_3"
"CDISCPILOT01","AE","01-701-1383",5,"E08","APPLICATION SITE ERYTHEMA","APPLICATION SITE ERYTHEMA",NA,"APPLICATION SITE ERYTHEMA",NA,"HLT_0617",NA,"HLGT_0152",NA,"GENERAL DISORDERS AND ADMINISTRATION SITE CONDITIONS",NA,"GENERAL DISORDERS AND ADMINISTRATION SITE CONDITIONS",NA,"MILD","N",NA,"POSSIBLE","NOT RECOVERED/NOT RESOLVED","N","N","N","N","N","N","N","2013-04-30","2013-04-12",NA,68,NA,"01-701-1383_5"
"CDISCPILOT01","AE","01-701-1383",6,"E09","APPLICATION SITE IRRITATION","APPLICATION SITE BURNING",NA,"APPLICATION SITE IRRITATION",NA,"HLT_0061",NA,"HLGT_0346",NA,"GENERAL DISORDERS AND ADMINISTRATION SITE CONDITIONS",NA,"GENERAL DISORDERS AND ADMINISTRATION SITE CONDITIONS",NA,"MILD","N",NA,"POSSIBLE","NOT RECOVERED/NOT RESOLVED","N","N","N","N","N","N","N","2013-04-30","2013-04-12",NA,68,NA,"01-701-1383_6"
"CDISCPILOT01","AE","01-701-1383",8,"E09","APPLICATION SITE IRRITATION","APPLICATION SITE BURNING",NA,"APPLICATION SITE IRRITATION",NA,"HLT_0061",NA,"HLGT_0346",NA,"GENERAL DISORDERS AND ADMINISTRATION SITE CONDITIONS",NA,"GENERAL DISORDERS AND ADMINISTRATION SITE CONDITIONS",NA,"MODERATE","N",NA,"POSSIBLE","NOT RECOVERED/NOT RESOLVED","N","N","N","N","N","N","N","2013-05-30","2013-04-12",NA,68,NA,"01-701-1383_8"
"CDISCPILOT01","AE","01-701-1383",2,"E05","APPLICATION SITE PAIN","APPLICATION SITE PAIN",NA,"APPLICATION SITE PAIN",NA,"HLT_0342",NA,"HLGT_0085",NA,"GENERAL DISORDERS AND ADMINISTRATION SITE CONDITIONS",NA,"GENERAL DISORDERS AND ADMINISTRATION SITE CONDITIONS",NA,"MILD","N",NA,"PROBABLE","RECOVERED/RESOLVED","N","N","N","N","N","N","N","2013-02-19","2013-02-07","2013-02-07",4,4,"01-701-1383_2"
"CDISCPILOT01","AE","01-701-1383",1,"E04","APPLICATION SITE PRURITUS","APPLICATION SITE ITCHING",NA,"APPLICATION SITE PRURITUS",NA,"HLT_0317",NA,"HLGT_0338",NA,"GENERAL DISORDERS AND ADMINISTRATION SITE CONDITIONS",NA,"GENERAL DISORDERS AND ADMINISTRATION SITE CONDITIONS",NA,"MILD","N",NA,"PROBABLE","RECOVERED/RESOLVED","N","N","N","N","N","N","N","2013-02-19","2013-02-07","2013-02-07",4,4,"01-701-1383_1"
"CDISCPILOT01","AE","01-701-1383",4,"E07","APPLICATION SITE PRURITUS","APPLICATION SITE ITCHING",NA,"APPLICATION SITE PRURITUS",NA,"HLT_0317",NA,"HLGT_0338",NA,"GENERAL DISORDERS AND ADMINISTRATION SITE CONDITIONS",NA,"GENERAL DISORDERS AND ADMINISTRATION SITE CONDITIONS",NA,"MILD","N",NA,"POSSIBLE","NOT RECOVERED/NOT RESOLVED","N","N","N","N","N","N","N","2013-04-02","2013-03-23",NA,48,NA,"01-701-1383_4"
"CDISCPILOT01","AE","01-701-1383",7,"E07","APPLICATION SITE PRURITUS","APPLICATION SITE ITCHING",NA,"APPLICATION SITE PRURITUS",NA,"HLT_0317",NA,"HLGT_0338",NA,"GENERAL DISORDERS AND ADMINISTRATION SITE CONDITIONS",NA,"GENERAL DISORDERS AND ADMINISTRATION SITE CONDITIONS",NA,"MODERATE","N",NA,"POSSIBLE","NOT RECOVERED/NOT RESOLVED","N","N","N","N","N","N","N","2013-05-30","2013-03-23",NA,48,NA,"01-701-1383_7"
"CDISCPILOT01","AE","01-701-1383",9,"E10","APPLICATION SITE VESICLES","APPLICATION SITE BLISTER",NA,"APPLICATION SITE VESICLES",NA,"HLT_0180",NA,"HLGT_0576",NA,"GENERAL DISORDERS AND ADMINISTRATION SITE CONDITIONS",NA,"GENERAL DISORDERS AND ADMINISTRATION SITE CONDITIONS",NA,"MILD","N",NA,"POSSIBLE","RECOVERED/RESOLVED","N","N","N","N","N","N","N","2013-05-30","2013-05-07","2013-05-24",93,110,"01-701-1383_9"
"CDISCPILOT01","AE","01-701-1383",10,"E11","CHEST DISCOMFORT","CHEST PRESSURE",NA,"CHEST DISCOMFORT",NA,"HLT_0593",NA,"HLGT_0441",NA,"GENERAL DISORDERS AND ADMINISTRATION SITE CONDITIONS",NA,"GENERAL DISORDERS AND ADMINISTRATION SITE CONDITIONS",NA,"MILD","N",NA,"NONE","RECOVERED/RESOLVED","N","N","N","N","N","N","N","2013-06-25","2013-06-24","2013-06-24",141,141,"01-701-1383_10"
"CDISCPILOT01","AE","01-701-1383",12,"E13","COUGH","COUGH",NA,"COUGH",NA,"HLT_0701",NA,"HLGT_0280",NA,"RESPIRATORY, THORACIC AND MEDIASTINAL DISORDERS",NA,"RESPIRATORY, THORACIC AND MEDIASTINAL DISORDERS",NA,"MODERATE","N",NA,"NONE","RECOVERED/RESOLVED","N","N","N","N","N","N","N","2013-07-30","2013-07-17","2013-07-26",164,173,"01-701-1383_12"
"CDISCPILOT01","AE","01-701-1383",11,"E12","HEADACHE","FULLNESS HEAD",NA,"HEADACHE",NA,"HLT_0064",NA,"HLGT_0344",NA,"NERVOUS SYSTEM DISORDERS",NA,"NERVOUS SYSTEM DISORDERS",NA,"MILD","N",NA,"NONE","RECOVERED/RESOLVED","N","N","N","N","N","N","N","2013-06-25","2013-06-24","2013-06-24",141,141,"01-701-1383_11"
"CDISCPILOT01","AE","01-701-1387",1,"E08","DIARRHOEA","DIARRHEA",NA,"DIARRHOEA",NA,"HLT_0148",NA,"HLGT_0588",NA,"GASTROINTESTINAL DISORDERS",NA,"GASTROINTESTINAL DISORDERS",NA,"MILD","N",NA,"REMOTE","RECOVERED/RESOLVED","N","N","N","N","N","N","N","2014-03-25","2014-03-18","2014-03-18",7,7,"01-701-1387_1"
"CDISCPILOT01","AE","01-701-1387",2,"E09","HYPERHIDROSIS","SWEATING",NA,"HYPERHIDROSIS",NA,"HLT_0587",NA,"HLGT_0005",NA,"SKIN AND SUBCUTANEOUS TISSUE DISORDERS",NA,"SKIN AND SUBCUTANEOUS TISSUE DISORDERS",NA,"MILD","N",NA,"REMOTE","RECOVERED/RESOLVED","N","N","N","N","N","N","N","2014-03-25","2014-03-18","2014-03-18",7,7,"01-701-1387_2"
"CDISCPILOT01","AE","01-701-1392",1,"E04","UPPER RESPIRATORY TRACT INFECTION","UPPER RESPIRATORY INFECTION",NA,"UPPER RESPIRATORY TRACT INFECTION",NA,"HLT_0520",NA,"HLGT_0489",NA,"INFECTIONS AND INFESTATIONS",NA,"INFECTIONS AND INFESTATIONS",NA,"MILD","N",NA,"REMOTE","NOT RECOVERED/NOT RESOLVED","N","N","N","N","N","N","N","2013-03-17","2013-03-16","2013-03-21",140,145,"01-701-1392_1"
"CDISCPILOT01","AE","01-701-1392",2,"E04","UPPER RESPIRATORY TRACT INFECTION","UPPER RESPIRATORY INFECTION",NA,"UPPER RESPIRATORY TRACT INFECTION",NA,"HLT_0520",NA,"HLGT_0489",NA,"INFECTIONS AND INFESTATIONS",NA,"INFECTIONS AND INFESTATIONS",NA,"MILD","N",NA,"REMOTE","RECOVERED/RESOLVED","N","N","N","N","N","N","N","2013-04-15","2013-03-16","2013-03-21",140,145,"01-701-1392_2"
"CDISCPILOT01","AE","01-701-1415",6,"E12","DIARRHOEA","DIARRHEA",NA,"DIARRHOEA",NA,"HLT_0148",NA,"HLGT_0588",NA,"GASTROINTESTINAL DISORDERS",NA,"GASTROINTESTINAL DISORDERS",NA,"MILD","N",NA,"NONE","RECOVERED/RESOLVED","N","N","N","N","N","N","N","2014-03-10","2014-03-09","2014-03-09",168,168,"01-701-1415_6"
"CDISCPILOT01","AE","01-701-1415",3,"E10","MICTURITION URGENCY","URINARY URGENCY",NA,"MICTURITION URGENCY",NA,"HLT_0294",NA,"HLGT_0483",NA,"RENAL AND URINARY DISORDERS",NA,"RENAL AND URINARY DISORDERS",NA,"MILD","N",NA,"NONE","NOT RECOVERED/NOT RESOLVED","N","N","N","N","N","N","N","2013-12-21","2013-12-02",NA,71,NA,"01-701-1415_3"
"CDISCPILOT01","AE","01-701-1415",1,"E09","UPPER RESPIRATORY TRACT INFECTION","UPPER RESPIRATORY INFECTION",NA,"UPPER RESPIRATORY TRACT INFECTION",NA,"HLT_0520",NA,"HLGT_0489",NA,"INFECTIONS AND INFESTATIONS",NA,"INFECTIONS AND INFESTATIONS",NA,"MILD","N",NA,"NONE","NOT RECOVERED/NOT RESOLVED","N","N","N","N","N","N","N","2013-10-22","2013-10-21","2013-11-04",29,43,"01-701-1415_1"
"CDISCPILOT01","AE","01-701-1415",2,"E09","UPPER RESPIRATORY TRACT INFECTION","UPPER RESPIRATORY INFECTION",NA,"UPPER RESPIRATORY TRACT INFECTION",NA,"HLT_0520",NA,"HLGT_0489",NA,"INFECTIONS AND INFESTATIONS",NA,"INFECTIONS AND INFESTATIONS",NA,"MILD","N",NA,"NONE","RECOVERED/RESOLVED","N","N","N","N","N","N","N","2013-11-21","2013-10-21","2013-11-04",29,43,"01-701-1415_2"
"CDISCPILOT01","AE","01-701-1415",4,"E11","UPPER RESPIRATORY TRACT INFECTION","UPPER RESPIRATORY INFECTION",NA,"UPPER RESPIRATORY TRACT INFECTION",NA,"HLT_0520",NA,"HLGT_0489",NA,"INFECTIONS AND INFESTATIONS",NA,"INFECTIONS AND INFESTATIONS",NA,"MILD","N",NA,"REMOTE","NOT RECOVERED/NOT RESOLVED","N","N","N","N","N","N","N","2014-02-10","2014-01-21","2014-02-10",121,141,"01-701-1415_4"
"CDISCPILOT01","AE","01-701-1415",5,"E11","UPPER RESPIRATORY TRACT INFECTION","UPPER RESPIRATORY INFECTION",NA,"UPPER RESPIRATORY TRACT INFECTION",NA,"HLT_0520",NA,"HLGT_0489",NA,"INFECTIONS AND INFESTATIONS",NA,"INFECTIONS AND INFESTATIONS",NA,"MILD","N",NA,"REMOTE","RECOVERED/RESOLVED","N","N","N","N","N","N","N","2014-03-10","2014-01-21","2014-02-10",121,141,"01-701-1415_5"
"CDISCPILOT01","AE","01-701-1442",1,"E03","APPLICATION SITE PRURITUS","APPLICATION SITE ITCHING",NA,"APPLICATION SITE PRURITUS",NA,"HLT_0317",NA,"HLGT_0338",NA,"GENERAL DISORDERS AND ADMINISTRATION SITE CONDITIONS",NA,"GENERAL DISORDERS AND ADMINISTRATION SITE CONDITIONS",NA,"MILD","N",NA,"PROBABLE","NOT RECOVERED/NOT RESOLVED","N","N","N","N","N","N","N","2014-01-18","2014-01-10",NA,77,NA,"01-701-1442_1"
"CDISCPILOT01","AE","01-701-1444",1,"E11","APPLICATION SITE ERYTHEMA","APPLICATION SITE ERYTHEMA",NA,"APPLICATION SITE ERYTHEMA",NA,"HLT_0617",NA,"HLGT_0152",NA,"GENERAL DISORDERS AND ADMINISTRATION SITE CONDITIONS",NA,"GENERAL DISORDERS AND ADMINISTRATION SITE CONDITIONS",NA,"MILD","N",NA,"POSSIBLE","NOT RECOVERED/NOT RESOLVED","N","N","N","N","N","N","N","2013-01-31","2013-01-19",NA,15,NA,"01-701-1444_1"
"CDISCPILOT01","AE","01-701-1444",4,"E11","APPLICATION SITE ERYTHEMA","APPLICATION SITE ERYTHEMA",NA,"APPLICATION SITE ERYTHEMA",NA,"HLT_0617",NA,"HLGT_0152",NA,"GENERAL DISORDERS AND ADMINISTRATION SITE CONDITIONS",NA,"GENERAL DISORDERS AND ADMINISTRATION SITE CONDITIONS",NA,"MODERATE","N",NA,"POSSIBLE","NOT RECOVERED/NOT RESOLVED","N","N","N","N","N","N","N","2013-02-13","2013-01-19",NA,15,NA,"01-701-1444_4"
"CDISCPILOT01","AE","01-701-1444",6,"E15","APPLICATION SITE IRRITATION","APPLICATION SITE BURNING",NA,"APPLICATION SITE IRRITATION",NA,"HLT_0061",NA,"HLGT_0346",NA,"GENERAL DISORDERS AND ADMINISTRATION SITE CONDITIONS",NA,"GENERAL DISORDERS AND ADMINISTRATION SITE CONDITIONS",NA,"MODERATE","N",NA,"PROBABLE","NOT RECOVERED/NOT RESOLVED","N","N","N","N","N","N","N","2013-02-13","2013-02-04",NA,31,NA,"01-701-1444_6"
"CDISCPILOT01","AE","01-701-1444",2,"E12","APPLICATION SITE PRURITUS","APPLICATION SITE ITCHING",NA,"APPLICATION SITE PRURITUS",NA,"HLT_0317",NA,"HLGT_0338",NA,"GENERAL DISORDERS AND ADMINISTRATION SITE CONDITIONS",NA,"GENERAL DISORDERS AND ADMINISTRATION SITE CONDITIONS",NA,"MILD","N",NA,"PROBABLE","NOT RECOVERED/NOT RESOLVED","N","N","N","N","N","N","N","2013-01-31","2013-01-19",NA,15,NA,"01-701-1444_2"
"CDISCPILOT01","AE","01-701-1444",5,"E12","APPLICATION SITE PRURITUS","APPLICATION SITE ITCHING",NA,"APPLICATION SITE PRURITUS",NA,"HLT_0317",NA,"HLGT_0338",NA,"GENERAL DISORDERS AND ADMINISTRATION SITE CONDITIONS",NA,"GENERAL DISORDERS AND ADMINISTRATION SITE CONDITIONS",NA,"MODERATE","N",NA,"PROBABLE","NOT RECOVERED/NOT RESOLVED","N","N","N","N","N","N","N","2013-02-13","2013-01-19",NA,15,NA,"01-701-1444_5"
"CDISCPILOT01","AE","01-701-1444",7,"E16","APPLICATION SITE VESICLES","APPLICATION SITE BLISTER",NA,"APPLICATION SITE VESICLES",NA,"HLT_0180",NA,"HLGT_0576",NA,"GENERAL DISORDERS AND ADMINISTRATION SITE CONDITIONS",NA,"GENERAL DISORDERS AND ADMINISTRATION SITE CONDITIONS",NA,"MODERATE","N",NA,"PROBABLE","NOT RECOVERED/NOT RESOLVED","N","N","N","N","N","N","N","2013-02-13","2013-02-04",NA,31,NA,"01-701-1444_7"
"CDISCPILOT01","AE","01-701-1444",8,"E14","PARAESTHESIA","TINGLING",NA,"PARAESTHESIA",NA,"HLT_0481",NA,"HLGT_0534",NA,"NERVOUS SYSTEM DISORDERS",NA,"NERVOUS SYSTEM DISORDERS",NA,"MILD","N",NA,"NONE","RECOVERED/RESOLVED","N","N","N","N","N","N","N","2013-02-13","2013-02-08","2013-02-08",35,35,"01-701-1444_8"
"CDISCPILOT01","AE","01-701-1444",3,"E13","SALIVARY HYPERSECRETION","HYPERSALIVATION",NA,"SALIVARY HYPERSECRETION",NA,"HLT_0374",NA,"HLGT_0488",NA,"GASTROINTESTINAL DISORDERS",NA,"GASTROINTESTINAL DISORDERS",NA,"MILD","N",NA,"POSSIBLE","NOT RECOVERED/NOT RESOLVED","N","N","N","N","N","N","N","2013-01-31","2013-01-19",NA,15,NA,"01-701-1444_3"
"CDISCPILOT01","AE","01-702-1082",9,"E07","APPLICATION SITE IRRITATION","APPLICATION SITE IRRITATION",NA,"APPLICATION SITE IRRITATION",NA,"HLT_0061",NA,"HLGT_0346",NA,"GENERAL DISORDERS AND ADMINISTRATION SITE CONDITIONS",NA,"GENERAL DISORDERS AND ADMINISTRATION SITE CONDITIONS",NA,"MILD","N",NA,"PROBABLE","RECOVERED/RESOLVED","N","N","N","N","N","N","N","2013-09-28","2013-09-09","2013-09-24",46,61,"01-702-1082_9"
"CDISCPILOT01","AE","01-702-1082",2,"E03","NEUTROPHIL COUNT INCREASED","NEUTROPHIL COUNT INCREASED",NA,"NEUTROPHIL COUNT INCREASED",NA,"HLT_0326",NA,"HLGT_0625",NA,"INVESTIGATIONS",NA,"INVESTIGATIONS",NA,"MILD","N",NA,"NONE","NOT RECOVERED/NOT RESOLVED","N","N","N","N","N","N","N","2013-07-24","2013-07-07","2013-07-26",-19,1,"01-702-1082_2"
"CDISCPILOT01","AE","01-702-1082",6,"E03","NEUTROPHIL COUNT INCREASED","NEUTROPHIL COUNT INCREASED",NA,"NEUTROPHIL COUNT INCREASED",NA,"HLT_0326",NA,"HLGT_0625",NA,"INVESTIGATIONS",NA,"INVESTIGATIONS",NA,"MILD","N",NA,"NONE","RECOVERED/RESOLVED","N","N","N","N","N","N","N","2013-08-08","2013-07-07","2013-07-26",-19,1,"01-702-1082_6"
"CDISCPILOT01","AE","01-702-1082",7,"E06","RECTAL HAEMORRHAGE","RECTAL BLEEDING",NA,"RECTAL HAEMORRHAGE",NA,"HLT_0353",NA,"HLGT_0755",NA,"GASTROINTESTINAL DISORDERS",NA,"GASTROINTESTINAL DISORDERS",NA,"MILD","N",NA,"NONE","NOT RECOVERED/NOT RESOLVED","N","N","N","N","N","N","N","2013-09-06","2013-09-02","2013-09-06",39,43,"01-702-1082_7"
"CDISCPILOT01","AE","01-702-1082",8,"E06","RECTAL HAEMORRHAGE","RECTAL BLEEDING",NA,"RECTAL HAEMORRHAGE",NA,"HLT_0353",NA,"HLGT_0755",NA,"GASTROINTESTINAL DISORDERS",NA,"GASTROINTESTINAL DISORDERS",NA,"MILD","N",NA,"NONE","RECOVERED/RESOLVED","N","N","N","N","N","N","N","2013-09-28","2013-09-02","2013-09-06",39,43,"01-702-1082_8"
"CDISCPILOT01","AE","01-702-1082",10,"E08","SKIN IRRITATION","SKIN IRRITATION",NA,"SKIN IRRITATION",NA,"HLT_0583",NA,"HLGT_0384",NA,"SKIN AND SUBCUTANEOUS TISSUE DISORDERS",NA,"SKIN AND SUBCUTANEOUS TISSUE DISORDERS",NA,"MODERATE","N",NA,"PROBABLE","RECOVERED/RESOLVED","N","N","N","N","N","N","N","2013-11-17","2013-10-12","2013-10-31",79,98,"01-702-1082_10"
"CDISCPILOT01","AE","01-702-1082",3,"E04","URINE ANALYSIS ABNORMAL","URINE ANALYSIS ABNORMAL",NA,"URINE ANALYSIS ABNORMAL",NA,"HLT_0783",NA,"HLGT_0295",NA,"INVESTIGATIONS",NA,"INVESTIGATIONS",NA,"MILD","N",NA,"NONE","NOT RECOVERED/NOT RESOLVED","N","N","N","N","N","N","N","2013-07-24","2013-07-07","2013-07-24",-19,-2,"01-702-1082_3"
"CDISCPILOT01","AE","01-702-1082",4,"E04","URINE ANALYSIS ABNORMAL","URINE ANALYSIS ABNORMAL",NA,"URINE ANALYSIS ABNORMAL",NA,"HLT_0783",NA,"HLGT_0295",NA,"INVESTIGATIONS",NA,"INVESTIGATIONS",NA,"MILD","N",NA,"NONE","RECOVERED/RESOLVED","N","N","N","N","N","N","N","2013-07-26","2013-07-07","2013-07-24",-19,-2,"01-702-1082_4"
"CDISCPILOT01","AE","01-702-1082",1,"E02","WHITE BLOOD CELL COUNT INCREASED","WBC INCREASED",NA,"WHITE BLOOD CELL COUNT INCREASED",NA,"HLT_0417",NA,"HLGT_0465",NA,"INVESTIGATIONS",NA,"INVESTIGATIONS",NA,"MILD","N",NA,"NONE","NOT RECOVERED/NOT RESOLVED","N","N","N","N","N","N","N","2013-07-24","2013-07-07","2013-07-26",-19,1,"01-702-1082_1"
"CDISCPILOT01","AE","01-702-1082",5,"E02","WHITE BLOOD CELL COUNT INCREASED","WBC INCREASED",NA,"WHITE BLOOD CELL COUNT INCREASED",NA,"HLT_0417",NA,"HLGT_0465",NA,"INVESTIGATIONS",NA,"INVESTIGATIONS",NA,"MILD","N",NA,"NONE","RECOVERED/RESOLVED","N","N","N","N","N","N","N","2013-08-08","2013-07-07","2013-07-26",-19,1,"01-702-1082_5"
"CDISCPILOT01","AE","01-703-1042",1,"E04","DIARRHOEA","DIARRHEA",NA,"DIARRHOEA",NA,"HLT_0148",NA,"HLGT_0588",NA,"GASTROINTESTINAL DISORDERS",NA,"GASTROINTESTINAL DISORDERS",NA,"MILD","N",NA,"POSSIBLE","RECOVERED/RESOLVED","N","N","N","N","N","N","N","2013-03-14","2013-03-04","2013-03-05",3,4,"01-703-1042_1"
"CDISCPILOT01","AE","01-703-1042",2,"E05","INSOMNIA","INSOMNIA",NA,"INSOMNIA",NA,"HLT_0297",NA,"HLGT_0469",NA,"PSYCHIATRIC DISORDERS",NA,"PSYCHIATRIC DISORDERS",NA,"MILD","N",NA,"REMOTE","RECOVERED/RESOLVED","N","N","N","N","N","N","N","2013-03-14","2013-03-05","2013-03-06",4,5,"01-703-1042_2"
"CDISCPILOT01","AE","01-703-1076",5,"E09","APPLICATION SITE DERMATITIS","APPLICATION SITE RASH",NA,"APPLICATION SITE DERMATITIS",NA,"HLT_0343",NA,"HLGT_0241",NA,"GENERAL DISORDERS AND ADMINISTRATION SITE CONDITIONS",NA,"GENERAL DISORDERS AND ADMINISTRATION SITE CONDITIONS",NA,"MILD","N",NA,"PROBABLE","NOT RECOVERED/NOT RESOLVED","N","N","N","N","N","N","N","2013-12-04","2013-11-23",NA,30,NA,"01-703-1076_5"
"CDISCPILOT01","AE","01-703-1076",4,"E08","APPLICATION SITE PRURITUS","APPLICATION SITE ITCHING",NA,"APPLICATION SITE PRURITUS",NA,"HLT_0317",NA,"HLGT_0338",NA,"GENERAL DISORDERS AND ADMINISTRATION SITE CONDITIONS",NA,"GENERAL DISORDERS AND ADMINISTRATION SITE CONDITIONS",NA,"MILD","N",NA,"PROBABLE","NOT RECOVERED/NOT RESOLVED","N","N","N","N","N","N","N","2013-12-04","2013-11-23",NA,30,NA,"01-703-1076_4"
"CDISCPILOT01","AE","01-703-1076",7,"E08","APPLICATION SITE PRURITUS","APPLICATION SITE ITCHING",NA,"APPLICATION SITE PRURITUS",NA,"HLT_0317",NA,"HLGT_0338",NA,"GENERAL DISORDERS AND ADMINISTRATION SITE CONDITIONS",NA,"GENERAL DISORDERS AND ADMINISTRATION SITE CONDITIONS",NA,"MODERATE","N",NA,"PROBABLE","NOT RECOVERED/NOT RESOLVED","N","N","N","N","N","N","N","2013-12-17","2013-11-23",NA,30,NA,"01-703-1076_7"
"CDISCPILOT01","AE","01-703-1076",2,"E01","BENIGN PROSTATIC HYPERPLASIA","BENIGN PROSTATIC HYPERTROPHY",NA,"BENIGN PROSTATIC HYPERPLASIA",NA,"HLT_0215",NA,"HLGT_0568",NA,"REPRODUCTIVE SYSTEM AND BREAST DISORDERS",NA,"REPRODUCTIVE SYSTEM AND BREAST DISORDERS",NA,"MODERATE","N",NA,"NONE","NOT RECOVERED/NOT RESOLVED","N","N","N","N","N","N","N","2013-11-20","2013-11-20",NA,27,NA,"01-703-1076_2"
"CDISCPILOT01","AE","01-703-1076",1,"E02","BIOPSY PROSTATE","BIOPSY OF PROSTATE",NA,"BIOPSY PROSTATE",NA,"HLT_0553",NA,"HLGT_0725",NA,"INVESTIGATIONS",NA,"INVESTIGATIONS",NA,"MODERATE","N",NA,"NONE","RECOVERED/RESOLVED","N","N","N","N","N","N","N","2013-11-20","2013-11-16","2013-11-16",23,23,"01-703-1076_1"
"CDISCPILOT01","AE","01-703-1076",3,"E05","HYPERCHOLESTEROLAEMIA","HYPERCHOLESTEROLEMIA",NA,"HYPERCHOLESTEROLAEMIA",NA,"HLT_0025",NA,"HLGT_0703",NA,"METABOLISM AND NUTRITION DISORDERS",NA,"METABOLISM AND NUTRITION DISORDERS",NA,"MODERATE","N",NA,"NONE","NOT RECOVERED/NOT RESOLVED","N","N","N","N","N","N","N","2013-12-04","2007",NA,NA,NA,"01-703-1076_3"
"CDISCPILOT01","AE","01-703-1076",6,"E07","HYPERHIDROSIS","SWEATING",NA,"HYPERHIDROSIS",NA,"HLT_0587",NA,"HLGT_0005",NA,"SKIN AND SUBCUTANEOUS TISSUE DISORDERS",NA,"SKIN AND SUBCUTANEOUS TISSUE DISORDERS",NA,"MILD","N",NA,"POSSIBLE","NOT RECOVERED/NOT RESOLVED","N","N","N","N","N","N","N","2013-12-04","2013-11-25",NA,32,NA,"01-703-1076_6"
"CDISCPILOT01","AE","01-703-1086",1,"E01","APPLICATION SITE IRRITATION","APPLICATION SITE IRRITATION",NA,"APPLICATION SITE IRRITATION",NA,"HLT_0061",NA,"HLGT_0346",NA,"GENERAL DISORDERS AND ADMINISTRATION SITE CONDITIONS",NA,"GENERAL DISORDERS AND ADMINISTRATION SITE CONDITIONS",NA,"MILD","N",NA,"PROBABLE","NOT RECOVERED/NOT RESOLVED","N","N","N","N","N","N","N","2012-09-16","2012-09-13","2013-01-02",12,123,"01-703-1086_1"
"CDISCPILOT01","AE","01-703-1086",2,"E01","APPLICATION SITE IRRITATION","APPLICATION SITE IRRITATION",NA,"APPLICATION SITE IRRITATION",NA,"HLT_0061",NA,"HLGT_0346",NA,"GENERAL DISORDERS AND ADMINISTRATION SITE CONDITIONS",NA,"GENERAL DISORDERS AND ADMINISTRATION SITE CONDITIONS",NA,"MODERATE","N",NA,"PROBABLE","NOT RECOVERED/NOT RESOLVED","N","N","N","N","N","N","N","2012-09-30","2012-09-13","2013-01-02",12,123,"01-703-1086_2"
"CDISCPILOT01","AE","01-703-1086",3,"E01","APPLICATION SITE IRRITATION","APPLICATION SITE IRRITATION",NA,"APPLICATION SITE IRRITATION",NA,"HLT_0061",NA,"HLGT_0346",NA,"GENERAL DISORDERS AND ADMINISTRATION SITE CONDITIONS",NA,"GENERAL DISORDERS AND ADMINISTRATION SITE CONDITIONS",NA,"SEVERE","N",NA,"PROBABLE","NOT RECOVERED/NOT RESOLVED","N","N","N","N","N","N","N","2012-10-13","2012-09-13","2013-01-02",12,123,"01-703-1086_3"
"CDISCPILOT01","AE","01-703-1086",6,"E01","APPLICATION SITE IRRITATION","APPLICATION SITE IRRITATION",NA,"APPLICATION SITE IRRITATION",NA,"HLT_0061",NA,"HLGT_0346",NA,"GENERAL DISORDERS AND ADMINISTRATION SITE CONDITIONS",NA,"GENERAL DISORDERS AND ADMINISTRATION SITE CONDITIONS",NA,"MILD","N",NA,"PROBABLE","RECOVERED/RESOLVED","N","N","N","N","N","N","N","2013-03-26","2012-09-13","2013-01-02",12,123,"01-703-1086_6"
"CDISCPILOT01","AE","01-703-1086",4,"E02","CHILLS","CHILLS",NA,"CHILLS",NA,"HLT_0586",NA,"HLGT_0161",NA,"GENERAL DISORDERS AND ADMINISTRATION SITE CONDITIONS",NA,"GENERAL DISORDERS AND ADMINISTRATION SITE CONDITIONS",NA,"MILD","N",NA,"POSSIBLE","NOT RECOVERED/NOT RESOLVED","N","N","N","N","N","N","N","2012-10-13","2012-10-09","2012-10-15",38,44,"01-703-1086_4"
"CDISCPILOT01","AE","01-703-1086",5,"E02","CHILLS","CHILLS",NA,"CHILLS",NA,"HLT_0586",NA,"HLGT_0161",NA,"GENERAL DISORDERS AND ADMINISTRATION SITE CONDITIONS",NA,"GENERAL DISORDERS AND ADMINISTRATION SITE CONDITIONS",NA,"MILD","N",NA,"POSSIBLE","RECOVERED/RESOLVED","N","N","N","N","N","N","N","2012-10-27","2012-10-09","2012-10-15",38,44,"01-703-1086_5"
"CDISCPILOT01","AE","01-703-1100",1,"E04","APPLICATION SITE IRRITATION","APPLICATION SITE IRRITATION",NA,"APPLICATION SITE IRRITATION",NA,"HLT_0061",NA,"HLGT_0346",NA,"GENERAL DISORDERS AND ADMINISTRATION SITE CONDITIONS",NA,"GENERAL DISORDERS AND ADMINISTRATION SITE CONDITIONS",NA,"MODERATE","N",NA,"PROBABLE","NOT RECOVERED/NOT RESOLVED","N","N","N","N","N","N","N","2013-04-12","2013-04-05","2013-04-16",24,35,"01-703-1100_1"
"CDISCPILOT01","AE","01-703-1100",2,"E04","APPLICATION SITE IRRITATION","APPLICATION SITE IRRITATION",NA,"APPLICATION SITE IRRITATION",NA,"HLT_0061",NA,"HLGT_0346",NA,"GENERAL DISORDERS AND ADMINISTRATION SITE CONDITIONS",NA,"GENERAL DISORDERS AND ADMINISTRATION SITE CONDITIONS",NA,"MILD","N",NA,"PROBABLE","NOT RECOVERED/NOT RESOLVED","N","N","N","N","N","N","N","2013-04-14","2013-04-05","2013-04-16",24,35,"01-703-1100_2"
"CDISCPILOT01","AE","01-703-1100",3,"E04","APPLICATION SITE IRRITATION","APPLICATION SITE IRRITATION",NA,"APPLICATION SITE IRRITATION",NA,"HLT_0061",NA,"HLGT_0346",NA,"GENERAL DISORDERS AND ADMINISTRATION SITE CONDITIONS",NA,"GENERAL DISORDERS AND ADMINISTRATION SITE CONDITIONS",NA,"MILD","N",NA,"PROBABLE","RECOVERED/RESOLVED","N","N","N","N","N","N","N","2013-04-24","2013-04-05","2013-04-16",24,35,"01-703-1100_3"
"CDISCPILOT01","AE","01-703-1100",4,"E06","CATARACT OPERATION","CATARACT EXTRACTION",NA,"CATARACT OPERATION",NA,"HLT_0432",NA,"HLGT_0058",NA,"SURGICAL AND MEDICAL PROCEDURES",NA,"SURGICAL AND MEDICAL PROCEDURES",NA,"MODERATE","N",NA,"NONE","RECOVERED/RESOLVED","N","N","N","N","N","N","N","2013-05-08","2013-04-25","2013-04-25",44,44,"01-703-1100_4"
"CDISCPILOT01","AE","01-703-1100",6,"E07","OEDEMA PERIPHERAL","LEG EDEMA",NA,"OEDEMA PERIPHERAL",NA,"HLT_0661",NA,"HLGT_0137",NA,"GENERAL DISORDERS AND ADMINISTRATION SITE CONDITIONS",NA,"GENERAL DISORDERS AND ADMINISTRATION SITE CONDITIONS",NA,"MODERATE","N",NA,"REMOTE","NOT RECOVERED/NOT RESOLVED","N","N","N","N","N","N","N","2013-07-31","2013-02-28","2013-09-14",-13,186,"01-703-1100_6"
"CDISCPILOT01","AE","01-703-1100",8,"E07","OEDEMA PERIPHERAL","LEG EDEMA",NA,"OEDEMA PERIPHERAL",NA,"HLT_0661",NA,"HLGT_0137",NA,"GENERAL DISORDERS AND ADMINISTRATION SITE CONDITIONS",NA,"GENERAL DISORDERS AND ADMINISTRATION SITE CONDITIONS",NA,"MODERATE","N",NA,"REMOTE","RECOVERED/RESOLVED","N","N","N","N","N","N","N","2013-09-14","2013-02-28","2013-09-14",-13,186,"01-703-1100_8"
"CDISCPILOT01","AE","01-703-1100",7,"E09","OEDEMA PERIPHERAL","LEG EDEMA",NA,"OEDEMA PERIPHERAL",NA,"HLT_0661",NA,"HLGT_0137",NA,"GENERAL DISORDERS AND ADMINISTRATION SITE CONDITIONS",NA,"GENERAL DISORDERS AND ADMINISTRATION SITE CONDITIONS",NA,"MILD","N",NA,"REMOTE","NOT RECOVERED/NOT RESOLVED","N","N","N","N","N","N","N","2013-07-31","2013-07-17","2013-09-14",127,186,"01-703-1100_7"
"CDISCPILOT01","AE","01-703-1100",9,"E09","OEDEMA PERIPHERAL","LEG EDEMA",NA,"OEDEMA PERIPHERAL",NA,"HLT_0661",NA,"HLGT_0137",NA,"GENERAL DISORDERS AND ADMINISTRATION SITE CONDITIONS",NA,"GENERAL DISORDERS AND ADMINISTRATION SITE CONDITIONS",NA,"MILD","N",NA,"REMOTE","RECOVERED/RESOLVED","N","N","N","N","N","N","N","2013-09-14","2013-07-17","2013-09-14",127,186,"01-703-1100_9"
"CDISCPILOT01","AE","01-703-1100",5,"E08","UPPER RESPIRATORY TRACT INFECTION","UPPER RESPIRATORY INFECTION",NA,"UPPER RESPIRATORY TRACT INFECTION",NA,"HLT_0520",NA,"HLGT_0489",NA,"INFECTIONS AND INFESTATIONS",NA,"INFECTIONS AND INFESTATIONS",NA,"MODERATE","N",NA,"REMOTE","RECOVERED/RESOLVED","N","N","N","N","N","N","N","2013-06-05","2013-05-27","2013-06-03",76,83,"01-703-1100_5"
"CDISCPILOT01","AE","01-703-1119",1,"E04","APPLICATION SITE IRRITATION","APPLICATION SITE IRRITATION",NA,"APPLICATION SITE IRRITATION",NA,"HLT_0061",NA,"HLGT_0346",NA,"GENERAL DISORDERS AND ADMINISTRATION SITE CONDITIONS",NA,"GENERAL DISORDERS AND ADMINISTRATION SITE CONDITIONS",NA,"MODERATE","N",NA,"PROBABLE","NOT RECOVERED/NOT RESOLVED","N","N","N","N","N","N","N","2013-03-21","2013-03-16",NA,25,NA,"01-703-1119_1"
"CDISCPILOT01","AE","01-703-1119",2,"E04","APPLICATION SITE IRRITATION","APPLICATION SITE IRRITATION",NA,"APPLICATION SITE IRRITATION",NA,"HLT_0061",NA,"HLGT_0346",NA,"GENERAL DISORDERS AND ADMINISTRATION SITE CONDITIONS",NA,"GENERAL DISORDERS AND ADMINISTRATION SITE CONDITIONS",NA,"SEVERE","N",NA,"PROBABLE","NOT RECOVERED/NOT RESOLVED","N","N","N","N","N","N","N","2013-05-17","2013-03-16",NA,25,NA,"01-703-1119_2"
"CDISCPILOT01","AE","01-703-1119",3,"E05","PRURITUS","ITCHING",NA,"PRURITUS",NA,"HLT_0778",NA,"HLGT_0695",NA,"SKIN AND SUBCUTANEOUS TISSUE DISORDERS",NA,"SKIN AND SUBCUTANEOUS TISSUE DISORDERS",NA,"MODERATE","N",NA,"PROBABLE","NOT RECOVERED/NOT RESOLVED","N","N","N","N","N","N","N","2013-05-17","2013-05-04",NA,74,NA,"01-703-1119_3"
"CDISCPILOT01","AE","01-703-1119",4,"E05","PRURITUS","ITCHING",NA,"PRURITUS",NA,"HLT_0778",NA,"HLGT_0695",NA,"SKIN AND SUBCUTANEOUS TISSUE DISORDERS",NA,"SKIN AND SUBCUTANEOUS TISSUE DISORDERS",NA,"SEVERE","N",NA,"PROBABLE","NOT RECOVERED/NOT RESOLVED","N","N","N","N","N","N","N","2013-06-13","2013-05-04",NA,74,NA,"01-703-1119_4"
"CDISCPILOT01","AE","01-703-1175",1,"E01","ATRIOVENTRICULAR BLOCK SECOND DEGREE","HEART BLOCK SECOND DEGREE",NA,"ATRIOVENTRICULAR BLOCK SECOND DEGREE",NA,"HLT_0415",NA,"HLGT_0086",NA,"CARDIAC DISORDERS",NA,"CARDIAC DISORDERS",NA,"SEVERE","N",NA,"NONE","NOT RECOVERED/NOT RESOLVED","N","N","N","N","N","N","N","2013-12-18","2013-12-18",NA,-2,NA,"01-703-1175_1"
"CDISCPILOT01","AE","01-703-1182",1,"E05","APPLICATION SITE ERYTHEMA","APPLICATION SITE REDNESS",NA,"APPLICATION SITE ERYTHEMA",NA,"HLT_0617",NA,"HLGT_0152",NA,"GENERAL DISORDERS AND ADMINISTRATION SITE CONDITIONS",NA,"GENERAL DISORDERS AND ADMINISTRATION SITE CONDITIONS",NA,"MILD","N",NA,"POSSIBLE","NOT RECOVERED/NOT RESOLVED","N","N","N","N","N","N","N","2013-10-31","2013-10-31",NA,15,NA,"01-703-1182_1"
"CDISCPILOT01","AE","01-703-1182",2,"E05","APPLICATION SITE ERYTHEMA","APPLICATION SITE REDNESS",NA,"APPLICATION SITE ERYTHEMA",NA,"HLT_0617",NA,"HLGT_0152",NA,"GENERAL DISORDERS AND ADMINISTRATION SITE CONDITIONS",NA,"GENERAL DISORDERS AND ADMINISTRATION SITE CONDITIONS",NA,"MODERATE","N",NA,"POSSIBLE","NOT RECOVERED/NOT RESOLVED","N","N","N","N","N","N","N","2013-11-28","2013-10-31",NA,15,NA,"01-703-1182_2"
"CDISCPILOT01","AE","01-703-1182",3,"E07","SOMNOLENCE","DROWSINESS",NA,"SOMNOLENCE",NA,"HLT_0160",NA,"HLGT_0254",NA,"NERVOUS SYSTEM DISORDERS",NA,"NERVOUS SYSTEM DISORDERS",NA,"MILD","N",NA,"REMOTE","NOT RECOVERED/NOT RESOLVED","N","N","N","N","N","N","N","2013-11-28","2013-11-22",NA,37,NA,"01-703-1182_3"
"CDISCPILOT01","AE","01-703-1182",4,"E07","SOMNOLENCE","DROWSINESS",NA,"SOMNOLENCE",NA,"HLT_0160",NA,"HLGT_0254",NA,"NERVOUS SYSTEM DISORDERS",NA,"NERVOUS SYSTEM DISORDERS",NA,"MODERATE","N",NA,"REMOTE","NOT RECOVERED/NOT RESOLVED","N","N","N","N","N","N","N","2013-12-12","2013-11-22",NA,37,NA,"01-703-1182_4"
"CDISCPILOT01","AE","01-703-1210",2,"E04","DECREASED APPETITE","DECREASED APPETITE",NA,"DECREASED APPETITE",NA,"HLT_0574",NA,"HLGT_0231",NA,"METABOLISM AND NUTRITION DISORDERS",NA,"METABOLISM AND NUTRITION DISORDERS",NA,"MILD","N",NA,"POSSIBLE","NOT RECOVERED/NOT RESOLVED","N","N","N","N","N","N","N","2013-05-10","2013-05-04",NA,50,NA,"01-703-1210_2"
"CDISCPILOT01","AE","01-703-1210",3,"E04","DECREASED APPETITE","DECREASED APPETITE",NA,"DECREASED APPETITE",NA,"HLT_0574",NA,"HLGT_0231",NA,"METABOLISM AND NUTRITION DISORDERS",NA,"METABOLISM AND NUTRITION DISORDERS",NA,"MODERATE","N",NA,"POSSIBLE","NOT RECOVERED/NOT RESOLVED","N","N","N","N","N","N","N","2013-08-24","2013-05-04",NA,50,NA,"01-703-1210_3"
"CDISCPILOT01","AE","01-703-1210",1,"E01","DISORIENTATION","DISORIENTATION",NA,"DISORIENTATION",NA,"HLT_0299",NA,"HLGT_0307",NA,"PSYCHIATRIC DISORDERS",NA,"PSYCHIATRIC DISORDERS",NA,"MILD","N",NA,"REMOTE","NOT RECOVERED/NOT RESOLVED","N","N","N","N","N","N","N","2013-04-12","2013-04-02",NA,18,NA,"01-703-1210_1"
"CDISCPILOT01","AE","01-703-1258",4,"E08","APPLICATION SITE DERMATITIS","APPLICATION SITE RASH",NA,"APPLICATION SITE DERMATITIS",NA,"HLT_0343",NA,"HLGT_0241",NA,"GENERAL DISORDERS AND ADMINISTRATION SITE CONDITIONS",NA,"GENERAL DISORDERS AND ADMINISTRATION SITE CONDITIONS",NA,"MILD","N",NA,"PROBABLE","NOT RECOVERED/NOT RESOLVED","N","N","N","N","N","N","N","2012-09-04","2012-09-04","2013-01-25",47,190,"01-703-1258_4"
"CDISCPILOT01","AE","01-703-1258",6,"E08","APPLICATION SITE DERMATITIS","APPLICATION SITE RASH",NA,"APPLICATION SITE DERMATITIS",NA,"HLT_0343",NA,"HLGT_0241",NA,"GENERAL DISORDERS AND ADMINISTRATION SITE CONDITIONS",NA,"GENERAL DISORDERS AND ADMINISTRATION SITE CONDITIONS",NA,"MODERATE","N",NA,"PROBABLE","NOT RECOVERED/NOT RESOLVED","N","N","N","N","N","N","N","2012-09-14","2012-09-04","2013-01-25",47,190,"01-703-1258_6"
"CDISCPILOT01","AE","01-703-1258",7,"E08","APPLICATION SITE DERMATITIS","APPLICATION SITE RASH",NA,"APPLICATION SITE DERMATITIS",NA,"HLT_0343",NA,"HLGT_0241",NA,"GENERAL DISORDERS AND ADMINISTRATION SITE CONDITIONS",NA,"GENERAL DISORDERS AND ADMINISTRATION SITE CONDITIONS",NA,"MILD","N",NA,"PROBABLE","RECOVERED/RESOLVED","N","N","N","N","N","N","N","2013-01-28","2012-09-04","2013-01-25",47,190,"01-703-1258_7"
"CDISCPILOT01","AE","01-703-1258",2,"E06","DIZZINESS","DIZZINESS",NA,"DIZZINESS",NA,"HLT_0619",NA,"HLGT_0751",NA,"NERVOUS SYSTEM DISORDERS",NA,"NERVOUS SYSTEM DISORDERS",NA,"MODERATE","N",NA,"NONE","NOT RECOVERED/NOT RESOLVED","N","N","N","N","N","N","N","2012-09-04","2001",NA,NA,NA,"01-703-1258_2"
"CDISCPILOT01","AE","01-703-1258",5,"E06","DIZZINESS","DIZZINESS",NA,"DIZZINESS",NA,"HLT_0619",NA,"HLGT_0751",NA,"NERVOUS SYSTEM DISORDERS",NA,"NERVOUS SYSTEM DISORDERS",NA,"MILD","N",NA,"NONE","NOT RECOVERED/NOT RESOLVED","N","N","N","N","N","N","N","2012-09-14","2001",NA,NA,NA,"01-703-1258_5"
"CDISCPILOT01","AE","01-703-1258",1,"E07","UPPER RESPIRATORY TRACT INFECTION","UPPER RESPIRATORY INFECTION",NA,"UPPER RESPIRATORY TRACT INFECTION",NA,"HLT_0520",NA,"HLGT_0489",NA,"INFECTIONS AND INFESTATIONS",NA,"INFECTIONS AND INFESTATIONS",NA,"MILD","N",NA,"NONE","NOT RECOVERED/NOT RESOLVED","N","N","N","N","N","N","N","2012-08-17","2012-08-11","2012-08-19",23,31,"01-703-1258_1"
"CDISCPILOT01","AE","01-703-1258",3,"E07","UPPER RESPIRATORY TRACT INFECTION","UPPER RESPIRATORY INFECTION",NA,"UPPER RESPIRATORY TRACT INFECTION",NA,"HLT_0520",NA,"HLGT_0489",NA,"INFECTIONS AND INFESTATIONS",NA,"INFECTIONS AND INFESTATIONS",NA,"MILD","N",NA,"NONE","RECOVERED/RESOLVED","N","N","N","N","N","N","N","2012-09-04","2012-08-11","2012-08-19",23,31,"01-703-1258_3"
"CDISCPILOT01","AE","01-703-1295",1,"E06","ARTHRITIS","ARTHRITIS",NA,"ARTHRITIS",NA,"HLT_0019",NA,"HLGT_0587",NA,"MUSCULOSKELETAL AND CONNECTIVE TISSUE DISORDERS",NA,"MUSCULOSKELETAL AND CONNECTIVE TISSUE DISORDERS",NA,"MODERATE","N",NA,"NONE","NOT RECOVERED/NOT RESOLVED","N","N","N","N","N","N","N","2014-01-01","2013-12-28",NA,38,NA,"01-703-1295_1"
"CDISCPILOT01","AE","01-703-1299",3,"E01","GLAUCOMA","GLAUCOMA",NA,"GLAUCOMA",NA,"HLT_0556",NA,"HLGT_0734",NA,"EYE DISORDERS",NA,"EYE DISORDERS",NA,"MODERATE","N",NA,"NONE","NOT RECOVERED/NOT RESOLVED","N","N","N","N","N","N","N","2013-03-01","1992",NA,NA,NA,"01-703-1299_3"
"CDISCPILOT01","AE","01-703-1299",4,"E05","HYPOTENSION","HYPOTENSION",NA,"HYPOTENSION",NA,"HLT_0761",NA,"HLGT_0412",NA,"VASCULAR DISORDERS",NA,"VASCULAR DISORDERS",NA,"MILD","N",NA,"REMOTE","NOT RECOVERED/NOT RESOLVED","N","N","N","N","N","N","N","2013-03-01","2013-03-01",NA,171,NA,"01-703-1299_4"
"CDISCPILOT01","AE","01-703-1299",6,"E05","HYPOTENSION","HYPOTENSION",NA,"HYPOTENSION",NA,"HLT_0761",NA,"HLGT_0412",NA,"VASCULAR DISORDERS",NA,"VASCULAR DISORDERS",NA,"MODERATE","N",NA,"REMOTE","NOT RECOVERED/NOT RESOLVED","N","N","N","N","N","N","N","2013-03-13","2013-03-01",NA,171,NA,"01-703-1299_6"
"CDISCPILOT01","AE","01-703-1299",8,"E07","MYOCARDIAL INFARCTION","MYOCARDIAL INFARCTION",NA,"MYOCARDIAL INFARCTION",NA,"HLT_0649",NA,"HLGT_0688",NA,"CARDIAC DISORDERS",NA,"CARDIAC DISORDERS",NA,"MODERATE","N",NA,"REMOTE","NOT RECOVERED/NOT RESOLVED","N","N","N","N","N","N","N","2013-03-13","2013-03-13",NA,183,NA,"01-703-1299_8"
"CDISCPILOT01","AE","01-703-1299",5,"E06","TACHYCARDIA","TACHYCARDIA",NA,"TACHYCARDIA",NA,"HLT_0082",NA,"HLGT_0574",NA,"CARDIAC DISORDERS",NA,"CARDIAC DISORDERS",NA,"MILD","N",NA,"REMOTE","NOT RECOVERED/NOT RESOLVED","N","N","N","N","N","N","N","2013-03-01","2013-03-01",NA,171,NA,"01-703-1299_5"
"CDISCPILOT01","AE","01-703-1299",7,"E06","TACHYCARDIA","TACHYCARDIA",NA,"TACHYCARDIA",NA,"HLT_0082",NA,"HLGT_0574",NA,"CARDIAC DISORDERS",NA,"CARDIAC DISORDERS",NA,"MODERATE","N",NA,"REMOTE","NOT RECOVERED/NOT RESOLVED","N","N","N","N","N","N","N","2013-03-13","2013-03-01",NA,171,NA,"01-703-1299_7"
"CDISCPILOT01","AE","01-703-1299",1,"E02","UPPER RESPIRATORY TRACT INFECTION","UPPER RESPIRATORY INFECTION",NA,"UPPER RESPIRATORY TRACT INFECTION",NA,"HLT_0520",NA,"HLGT_0489",NA,"INFECTIONS AND INFESTATIONS",NA,"INFECTIONS AND INFESTATIONS",NA,"MILD","N",NA,"NONE","NOT RECOVERED/NOT RESOLVED","N","N","N","N","N","N","N","2012-09-28","2012-09-27","2012-10-06",16,25,"01-703-1299_1"
"CDISCPILOT01","AE","01-703-1299",2,"E02","UPPER RESPIRATORY TRACT INFECTION","UPPER RESPIRATORY INFECTION",NA,"UPPER RESPIRATORY TRACT INFECTION",NA,"HLT_0520",NA,"HLGT_0489",NA,"INFECTIONS AND INFESTATIONS",NA,"INFECTIONS AND INFESTATIONS",NA,"MILD","N",NA,"NONE","RECOVERED/RESOLVED","N","N","N","N","N","N","N","2012-10-10","2012-09-27","2012-10-06",16,25,"01-703-1299_2"
"CDISCPILOT01","AE","01-703-1335",1,"E01","ATRIOVENTRICULAR BLOCK SECOND DEGREE","AV BLOCK SECOND DEGREE",NA,"ATRIOVENTRICULAR BLOCK SECOND DEGREE",NA,"HLT_0415",NA,"HLGT_0086",NA,"CARDIAC DISORDERS",NA,"CARDIAC DISORDERS",NA,"MILD","N",NA,"NONE","NOT RECOVERED/NOT RESOLVED","N","N","N","N","N","N","N","2014-03-15","2014-03-15","2014-03-30",-2,14,"01-703-1335_1"
"CDISCPILOT01","AE","01-703-1335",2,"E01","ATRIOVENTRICULAR BLOCK SECOND DEGREE","AV BLOCK SECOND DEGREE",NA,"ATRIOVENTRICULAR BLOCK SECOND DEGREE",NA,"HLT_0415",NA,"HLGT_0086",NA,"CARDIAC DISORDERS",NA,"CARDIAC DISORDERS",NA,"MILD","N",NA,"NONE","RECOVERED/RESOLVED","N","N","N","N","N","N","N","2014-03-31","2014-03-15","2014-03-30",-2,14,"01-703-1335_2"
"CDISCPILOT01","AE","01-703-1403",4,"E03","CHEST DISCOMFORT","CHEST TIGHTNESS",NA,"CHEST DISCOMFORT",NA,"HLT_0593",NA,"HLGT_0441",NA,"GENERAL DISORDERS AND ADMINISTRATION SITE CONDITIONS",NA,"GENERAL DISORDERS AND ADMINISTRATION SITE CONDITIONS",NA,"MILD","N",NA,"PROBABLE","RECOVERED/RESOLVED","N","N","N","N","N","N","N","2012-12-19","2012-12-15","2012-12-16",4,5,"01-703-1403_4"
"CDISCPILOT01","AE","01-703-1403",2,"E01","DIARRHOEA","DIARRHEA",NA,"DIARRHOEA",NA,"HLT_0148",NA,"HLGT_0588",NA,"GASTROINTESTINAL DISORDERS",NA,"GASTROINTESTINAL DISORDERS",NA,"MODERATE","N",NA,"PROBABLE","RECOVERED/RESOLVED","N","N","N","N","N","N","N","2012-12-19","2012-12-13","2012-12-14",2,3,"01-703-1403_2"
"CDISCPILOT01","AE","01-703-1403",3,"E02","VOMITING","VOMITING",NA,"VOMITING",NA,"HLT_0016",NA,"HLGT_0350",NA,"GASTROINTESTINAL DISORDERS",NA,"GASTROINTESTINAL DISORDERS",NA,"MODERATE","N",NA,"PROBABLE","RECOVERED/RESOLVED","N","N","N","N","N","N","N","2012-12-19","2012-12-13","2012-12-14",2,3,"01-703-1403_3"
"CDISCPILOT01","AE","01-703-1403",1,"E07","WEIGHT DECREASED","WEIGHT LOSS",NA,"WEIGHT DECREASED",NA,"HLT_0158",NA,"HLGT_0778",NA,"INVESTIGATIONS",NA,"INVESTIGATIONS",NA,"MODERATE","N",NA,"NONE","NOT RECOVERED/NOT RESOLVED","N","N","N","N","N","N","N","2012-12-19","2012-12-12","2012-12-19",1,8,"01-703-1403_1"
"CDISCPILOT01","AE","01-703-1403",5,"E07","WEIGHT DECREASED","WEIGHT LOSS",NA,"WEIGHT DECREASED",NA,"HLT_0158",NA,"HLGT_0778",NA,"INVESTIGATIONS",NA,"INVESTIGATIONS",NA,"MODERATE","N",NA,"NONE","RECOVERED/RESOLVED","N","N","N","N","N","N","N","2013-01-08","2012-12-12","2012-12-19",1,8,"01-703-1403_5"
"CDISCPILOT01","AE","01-703-1439",1,"E01","APPLICATION SITE IRRITATION","APPLICATION SITE IRRITATION",NA,"APPLICATION SITE IRRITATION",NA,"HLT_0061",NA,"HLGT_0346",NA,"GENERAL DISORDERS AND ADMINISTRATION SITE CONDITIONS",NA,"GENERAL DISORDERS AND ADMINISTRATION SITE CONDITIONS",NA,"MILD","N",NA,"PROBABLE","NOT RECOVERED/NOT RESOLVED","N","N","N","N","N","N","N","2014-05-05","2014-04-24",NA,44,NA,"01-703-1439_1"
"CDISCPILOT01","AE","01-703-1439",2,"E01","APPLICATION SITE IRRITATION","APPLICATION SITE IRRITATION",NA,"APPLICATION SITE IRRITATION",NA,"HLT_0061",NA,"HLGT_0346",NA,"GENERAL DISORDERS AND ADMINISTRATION SITE CONDITIONS",NA,"GENERAL DISORDERS AND ADMINISTRATION SITE CONDITIONS",NA,"MODERATE","N",NA,"PROBABLE","NOT RECOVERED/NOT RESOLVED","N","N","N","N","N","N","N","2014-06-30","2014-04-24",NA,44,NA,"01-703-1439_2"
"CDISCPILOT01","AE","01-704-1008",1,"E03","HYPERHIDROSIS","SWEATING INCREASED",NA,"HYPERHIDROSIS",NA,"HLT_0587",NA,"HLGT_0005",NA,"SKIN AND SUBCUTANEOUS TISSUE DISORDERS",NA,"SKIN AND SUBCUTANEOUS TISSUE DISORDERS",NA,"MILD","N",NA,"POSSIBLE","NOT RECOVERED/NOT RESOLVED","N","N","N","N","N","N","N","2013-02-09","2013-01-30",NA,18,NA,"01-704-1008_1"
"CDISCPILOT01","AE","01-704-1008",3,"E05","SINUS BRADYCARDIA","SINUS BRADYCARDIA",NA,"SINUS BRADYCARDIA",NA,"HLT_0644",NA,"HLGT_0500",NA,"CARDIAC DISORDERS",NA,"CARDIAC DISORDERS",NA,"MODERATE","N",NA,"NONE","NOT RECOVERED/NOT RESOLVED","N","N","N","N","N","N","N","2013-02-25","2013-02-25",NA,44,NA,"01-704-1008_3"
"CDISCPILOT01","AE","01-704-1008",2,"E06","TRANSIENT ISCHAEMIC ATTACK","TRANSIENT ISCHEMIC ATTACKS",NA,"TRANSIENT ISCHAEMIC ATTACK",NA,"HLT_0041",NA,"HLGT_0433",NA,"NERVOUS SYSTEM DISORDERS",NA,"NERVOUS SYSTEM DISORDERS",NA,"SEVERE","N",NA,"NONE","RECOVERED/RESOLVED","N","N","N","N","Y","N","N","2013-02-25","2013-02-21","2013-02-21",40,40,"01-704-1008_2"
"CDISCPILOT01","AE","01-704-1009",5,"E07","DIZZINESS","DIZZINESS",NA,"DIZZINESS",NA,"HLT_0619",NA,"HLGT_0751",NA,"NERVOUS SYSTEM DISORDERS",NA,"NERVOUS SYSTEM DISORDERS",NA,"MILD","N",NA,"REMOTE","NOT RECOVERED/NOT RESOLVED","N","N","N","N","N","N","N","2013-10-02","2013-09-17",NA,22,NA,"01-704-1009_5"
"CDISCPILOT01","AE","01-704-1009",1,"E09","FATIGUE","FATIGUE",NA,"FATIGUE",NA,"HLT_0043",NA,"HLGT_0181",NA,"GENERAL DISORDERS AND ADMINISTRATION SITE CONDITIONS",NA,"GENERAL DISORDERS AND ADMINISTRATION SITE CONDITIONS",NA,"MILD","N",NA,"REMOTE","NOT RECOVERED/NOT RESOLVED","N","N","N","N","N","N","N","2013-09-14","2013-09-05",NA,10,NA,"01-704-1009_1"
"CDISCPILOT01","AE","01-704-1009",2,"E10","MALAISE","MALAISE",NA,"MALAISE",NA,"HLT_0456",NA,"HLGT_0178",NA,"GENERAL DISORDERS AND ADMINISTRATION SITE CONDITIONS",NA,"GENERAL DISORDERS AND ADMINISTRATION SITE CONDITIONS",NA,"MILD","N",NA,"POSSIBLE","NOT RECOVERED/NOT RESOLVED","N","N","N","N","N","N","N","2013-09-14","2013-09-05","2013-09-27",10,32,"01-704-1009_2"
"CDISCPILOT01","AE","01-704-1009",4,"E10","MALAISE","MALAISE",NA,"MALAISE",NA,"HLT_0456",NA,"HLGT_0178",NA,"GENERAL DISORDERS AND ADMINISTRATION SITE CONDITIONS",NA,"GENERAL DISORDERS AND ADMINISTRATION SITE CONDITIONS",NA,"MILD","N",NA,"POSSIBLE","RECOVERED/RESOLVED","N","N","N","N","N","N","N","2013-10-02","2013-09-05","2013-09-27",10,32,"01-704-1009_4"
"CDISCPILOT01","AE","01-704-1009",6,"E08","NAUSEA","NAUSEA",NA,"NAUSEA",NA,"HLT_0742",NA,"HLGT_0326",NA,"GASTROINTESTINAL DISORDERS",NA,"GASTROINTESTINAL DISORDERS",NA,"MILD","N",NA,"POSSIBLE","RECOVERED/RESOLVED","N","N","N","N","N","N","N","2013-10-02","2013-09-22","2013-09-23",27,28,"01-704-1009_6"
"CDISCPILOT01","AE","01-704-1009",3,"E03","RASH","RASH",NA,"RASH",NA,"HLT_0762",NA,"HLGT_0198",NA,"SKIN AND SUBCUTANEOUS TISSUE DISORDERS",NA,"SKIN AND SUBCUTANEOUS TISSUE DISORDERS",NA,"MILD","N",NA,"POSSIBLE","NOT RECOVERED/NOT RESOLVED","N","N","N","N","N","N","N","2013-09-14","2013-09-14",NA,19,NA,"01-704-1009_3"
"CDISCPILOT01","AE","01-704-1010",6,"E07","ARTHRALGIA","KNEE PAIN",NA,"ARTHRALGIA",NA,"HLT_0375",NA,"HLGT_0610",NA,"MUSCULOSKELETAL AND CONNECTIVE TISSUE DISORDERS",NA,"MUSCULOSKELETAL AND CONNECTIVE TISSUE DISORDERS",NA,"MILD","N",NA,"NONE","NOT RECOVERED/NOT RESOLVED","N","N","N","N","N","N","N","2014-07-09","2014-07-06",NA,136,NA,"01-704-1010_6"
"CDISCPILOT01","AE","01-704-1010",7,"E08","CONTUSION","BRUISE OF HEAD",NA,"CONTUSION",NA,"HLT_0713",NA,"HLGT_0381",NA,"INJURY, POISONING AND PROCEDURAL COMPLICATIONS",NA,"INJURY, POISONING AND PROCEDURAL COMPLICATIONS",NA,"MILD","N",NA,"NONE","NOT RECOVERED/NOT RESOLVED","N","N","N","N","N","N","N","2014-07-09","2014-07-06",NA,136,NA,"01-704-1010_7"
"CDISCPILOT01","AE","01-704-1010",1,"E01","CYSTITIS","BLADDER INFECTION",NA,"CYSTITIS",NA,"HLT_0739",NA,"HLGT_0129",NA,"INFECTIONS AND INFESTATIONS",NA,"INFECTIONS AND INFESTATIONS",NA,"MILD","N",NA,"NONE","RECOVERED/RESOLVED","N","N","N","N","N","N","N","2014-03-08","2014-02-27","2014-03-06",7,14,"01-704-1010_1"
"CDISCPILOT01","AE","01-704-1010",3,"E04","DIARRHOEA","DIARRHEA",NA,"DIARRHOEA",NA,"HLT_0148",NA,"HLGT_0588",NA,"GASTROINTESTINAL DISORDERS",NA,"GASTROINTESTINAL DISORDERS",NA,"MILD","N",NA,"NONE","RECOVERED/RESOLVED","N","N","N","N","N","N","N","2014-07-09","2014-07-05","2014-07-06",135,136,"01-704-1010_3"
"CDISCPILOT01","AE","01-704-1010",4,"E05","EXCORIATION","ABRASION NOS",NA,"EXCORIATION",NA,"HLT_0738",NA,"HLGT_0511",NA,"INJURY, POISONING AND PROCEDURAL COMPLICATIONS",NA,"INJURY, POISONING AND PROCEDURAL COMPLICATIONS",NA,"MILD","N",NA,"NONE","NOT RECOVERED/NOT RESOLVED","N","N","N","N","N","N","N","2014-07-09","2014-07-06",NA,136,NA,"01-704-1010_4"
"CDISCPILOT01","AE","01-704-1010",5,"E06","SKIN LACERATION","SKIN TEAR",NA,"SKIN LACERATION",NA,"HLT_0075",NA,"HLGT_0118",NA,"INJURY, POISONING AND PROCEDURAL COMPLICATIONS",NA,"INJURY, POISONING AND PROCEDURAL COMPLICATIONS",NA,"MILD","N",NA,"NONE","NOT RECOVERED/NOT RESOLVED","N","N","N","N","N","N","N","2014-07-09","2014-07-06",NA,136,NA,"01-704-1010_5"
"CDISCPILOT01","AE","01-704-1010",2,"E03","VOMITING","VOMITING",NA,"VOMITING",NA,"HLT_0016",NA,"HLGT_0350",NA,"GASTROINTESTINAL DISORDERS",NA,"GASTROINTESTINAL DISORDERS",NA,"MILD","N",NA,"NONE","RECOVERED/RESOLVED","N","N","N","N","N","N","N","2014-07-09","2014-07-05","2014-07-06",135,136,"01-704-1010_2"
"CDISCPILOT01","AE","01-704-1017",4,"E16","CARDIAC DISORDER","CARDIAC DISORDER",NA,"CARDIAC DISORDER",NA,"HLT_0507",NA,"HLGT_0126",NA,"CARDIAC DISORDERS",NA,"CARDIAC DISORDERS",NA,"MILD","N",NA,"NONE","NOT RECOVERED/NOT RESOLVED","N","N","N","N","N","N","N","2013-11-09","2013-11-01",NA,27,NA,"01-704-1017_4"
"CDISCPILOT01","AE","01-704-1017",3,"E13","INFLUENZA","FLU",NA,"INFLUENZA",NA,"HLT_0125",NA,"HLGT_0081",NA,"INFECTIONS AND INFESTATIONS",NA,"INFECTIONS AND INFESTATIONS",NA,"MILD","N",NA,"NONE","RECOVERED/RESOLVED","N","N","N","N","N","N","N","2013-11-09","2013-11-01","2013-11-08",27,34,"01-704-1017_3"
"CDISCPILOT01","AE","01-704-1017",1,"E14","MYOCARDIAL INFARCTION","MYOCARDIAL INFARCTION",NA,"MYOCARDIAL INFARCTION",NA,"HLT_0649",NA,"HLGT_0688",NA,"CARDIAC DISORDERS",NA,"CARDIAC DISORDERS",NA,"MILD","N",NA,"NONE","NOT RECOVERED/NOT RESOLVED","N","N","N","N","N","N","N","2013-10-19","2013-10-19",NA,14,NA,"01-704-1017_1"
"CDISCPILOT01","AE","01-704-1017",6,"E12","PRURITUS","ITCHING",NA,"PRURITUS",NA,"HLT_0778",NA,"HLGT_0695",NA,"SKIN AND SUBCUTANEOUS TISSUE DISORDERS",NA,"SKIN AND SUBCUTANEOUS TISSUE DISORDERS",NA,"MILD","N",NA,"PROBABLE","NOT RECOVERED/NOT RESOLVED","N","N","N","N","N","N","N","2013-11-09","2013-11-05","2013-11-22",31,48,"01-704-1017_6"
"CDISCPILOT01","AE","01-704-1017",8,"E12","PRURITUS","ITCHING",NA,"PRURITUS",NA,"HLT_0778",NA,"HLGT_0695",NA,"SKIN AND SUBCUTANEOUS TISSUE DISORDERS",NA,"SKIN AND SUBCUTANEOUS TISSUE DISORDERS",NA,"MILD","N",NA,"PROBABLE","RECOVERED/RESOLVED","N","N","N","N","N","N","N","2013-11-24","2013-11-05","2013-11-22",31,48,"01-704-1017_8"
"CDISCPILOT01","AE","01-704-1017",5,"E11","RASH","RASH",NA,"RASH",NA,"HLT_0762",NA,"HLGT_0198",NA,"SKIN AND SUBCUTANEOUS TISSUE DISORDERS",NA,"SKIN AND SUBCUTANEOUS TISSUE DISORDERS",NA,"MILD","N",NA,"PROBABLE","NOT RECOVERED/NOT RESOLVED","N","N","N","N","N","N","N","2013-11-09","2013-11-05","2013-11-22",31,48,"01-704-1017_5"
"CDISCPILOT01","AE","01-704-1017",7,"E11","RASH","RASH",NA,"RASH",NA,"HLT_0762",NA,"HLGT_0198",NA,"SKIN AND SUBCUTANEOUS TISSUE DISORDERS",NA,"SKIN AND SUBCUTANEOUS TISSUE DISORDERS",NA,"MILD","N",NA,"PROBABLE","RECOVERED/RESOLVED","N","N","N","N","N","N","N","2013-11-24","2013-11-05","2013-11-22",31,48,"01-704-1017_7"
"CDISCPILOT01","AE","01-704-1017",2,"E15","VENTRICULAR SEPTAL DEFECT","VENTRICULAR SEPTAL DEFECT",NA,"VENTRICULAR SEPTAL DEFECT",NA,"HLT_0589",NA,"HLGT_0747",NA,"CONGENITAL, FAMILIAL AND GENETIC DISORDERS",NA,"CONGENITAL, FAMILIAL AND GENETIC DISORDERS",NA,"MILD","N",NA,"NONE","NOT RECOVERED/NOT RESOLVED","N","N","N","N","N","N","N","2013-10-19","2013-10-19",NA,14,NA,"01-704-1017_2"
"CDISCPILOT01","AE","01-704-1025",3,"E05","ELECTROCARDIOGRAM ST SEGMENT DEPRESSION","ST SEGMENT DEPRESSED",NA,"ELECTROCARDIOGRAM ST SEGMENT DEPRESSION",NA,"HLT_0610",NA,"HLGT_0220",NA,"INVESTIGATIONS",NA,"INVESTIGATIONS",NA,"MILD","N",NA,"POSSIBLE","NOT RECOVERED/NOT RESOLVED","N","N","N","N","N","N","N","2013-10-11","2013-10-11","2013-10-25",15,29,"01-704-1025_3"
"CDISCPILOT01","AE","01-704-1025",5,"E05","ELECTROCARDIOGRAM ST SEGMENT DEPRESSION","ST SEGMENT DEPRESSED",NA,"ELECTROCARDIOGRAM ST SEGMENT DEPRESSION",NA,"HLT_0610",NA,"HLGT_0220",NA,"INVESTIGATIONS",NA,"INVESTIGATIONS",NA,"MILD","N",NA,"POSSIBLE","RECOVERED/RESOLVED","N","N","N","N","N","N","N","2013-11-29","2013-10-11","2013-10-25",15,29,"01-704-1025_5"
"CDISCPILOT01","AE","01-704-1025",2,"E02","PALPITATIONS","PALPITATIONS",NA,"PALPITATIONS",NA,"HLT_0493",NA,"HLGT_0593",NA,"CARDIAC DISORDERS",NA,"CARDIAC DISORDERS",NA,"MODERATE","N",NA,"REMOTE","RECOVERED/RESOLVED","N","N","N","N","N","N","N","2013-10-11","2013-09-28","2013-09-30",2,4,"01-704-1025_2"
"CDISCPILOT01","AE","01-704-1025",1,"E01","VERTIGO","VERTIGO",NA,"VERTIGO",NA,"HLT_0255",NA,"HLGT_0147",NA,"EAR AND LABYRINTH DISORDERS",NA,"EAR AND LABYRINTH DISORDERS",NA,"MODERATE","N",NA,"POSSIBLE","RECOVERED/RESOLVED","N","N","N","N","N","N","N","2013-10-11","2013-09-28","2013-09-30",2,4,"01-704-1025_1"
"CDISCPILOT01","AE","01-704-1025",4,"E06","WOLFF-PARKINSON-WHITE SYNDROME","WOLFF-PARKINSON-WHITE SYNDROME",NA,"WOLFF-PARKINSON-WHITE SYNDROME",NA,"HLT_0612",NA,"HLGT_0218",NA,"CARDIAC DISORDERS",NA,"CARDIAC DISORDERS",NA,"MILD","N",NA,"POSSIBLE","NOT RECOVERED/NOT RESOLVED","N","N","N","N","N","N","N","2013-10-25","2013-10-25","2013-11-29",29,64,"01-704-1025_4"
"CDISCPILOT01","AE","01-704-1025",6,"E06","WOLFF-PARKINSON-WHITE SYNDROME","WOLFF-PARKINSON-WHITE SYNDROME",NA,"WOLFF-PARKINSON-WHITE SYNDROME",NA,"HLT_0612",NA,"HLGT_0218",NA,"CARDIAC DISORDERS",NA,"CARDIAC DISORDERS",NA,"MILD","N",NA,"POSSIBLE","RECOVERED/RESOLVED","N","N","N","N","N","N","N","2013-11-29","2013-10-25","2013-11-29",29,64,"01-704-1025_6"
"CDISCPILOT01","AE","01-704-1065",1,"E13","ABDOMINAL DISCOMFORT","ABDOMINAL DISCOMFORT",NA,"ABDOMINAL DISCOMFORT",NA,"HLT_0012",NA,"HLGT_0332",NA,"GASTROINTESTINAL DISORDERS",NA,"GASTROINTESTINAL DISORDERS",NA,"MILD","N",NA,"REMOTE","NOT RECOVERED/NOT RESOLVED","N","N","N","N","N","N","N","2013-11-07","2013-10-26",NA,3,NA,"01-704-1065_1"
"CDISCPILOT01","AE","01-704-1065",4,"E12","APPLICATION SITE IRRITATION","APPLICATION SITE BURNING",NA,"APPLICATION SITE IRRITATION",NA,"HLT_0061",NA,"HLGT_0346",NA,"GENERAL DISORDERS AND ADMINISTRATION SITE CONDITIONS",NA,"GENERAL DISORDERS AND ADMINISTRATION SITE CONDITIONS",NA,"MILD","N",NA,"PROBABLE","NOT RECOVERED/NOT RESOLVED","N","N","N","N","N","N","N","2013-11-25","2013-11-09",NA,17,NA,"01-704-1065_4"
"CDISCPILOT01","AE","01-704-1065",3,"E10","APPLICATION SITE PRURITUS","APPLICATION SITE ITCHING",NA,"APPLICATION SITE PRURITUS",NA,"HLT_0317",NA,"HLGT_0338",NA,"GENERAL DISORDERS AND ADMINISTRATION SITE CONDITIONS",NA,"GENERAL DISORDERS AND ADMINISTRATION SITE CONDITIONS",NA,"MODERATE","N",NA,"PROBABLE","NOT RECOVERED/NOT RESOLVED","N","N","N","N","N","N","N","2013-11-07","2013-10-27",NA,4,NA,"01-704-1065_3"
"CDISCPILOT01","AE","01-704-1065",7,"E16","CHILLS","CHILLS",NA,"CHILLS",NA,"HLT_0586",NA,"HLGT_0161",NA,"GENERAL DISORDERS AND ADMINISTRATION SITE CONDITIONS",NA,"GENERAL DISORDERS AND ADMINISTRATION SITE CONDITIONS",NA,"MILD","N",NA,"REMOTE","RECOVERED/RESOLVED","N","N","N","N","N","N","N","2013-11-25","2013-11-17","2013-11-17",25,25,"01-704-1065_7"
"CDISCPILOT01","AE","01-704-1065",9,"E18","DIARRHOEA","DIARRHEA",NA,"DIARRHOEA",NA,"HLT_0148",NA,"HLGT_0588",NA,"GASTROINTESTINAL DISORDERS",NA,"GASTROINTESTINAL DISORDERS",NA,"MILD","N",NA,"REMOTE","RECOVERED/RESOLVED","N","N","N","N","N","N","N","2013-12-20","2013-12-15","2013-12-15",53,53,"01-704-1065_9"
"CDISCPILOT01","AE","01-704-1065",8,"E17","DIZZINESS","DIZZINESS",NA,"DIZZINESS",NA,"HLT_0619",NA,"HLGT_0751",NA,"NERVOUS SYSTEM DISORDERS",NA,"NERVOUS SYSTEM DISORDERS",NA,"MILD","N",NA,"REMOTE","RECOVERED/RESOLVED","N","N","N","N","N","N","N","2013-11-25","2013-11-17","2013-11-17",25,25,"01-704-1065_8"
"CDISCPILOT01","AE","01-704-1065",6,"E15","HYPERHIDROSIS","PERSPIRATION EXCESSIVE",NA,"HYPERHIDROSIS",NA,"HLT_0587",NA,"HLGT_0005",NA,"SKIN AND SUBCUTANEOUS TISSUE DISORDERS",NA,"SKIN AND SUBCUTANEOUS TISSUE DISORDERS",NA,"MILD","N",NA,"POSSIBLE","NOT RECOVERED/NOT RESOLVED","N","N","N","N","N","N","N","2013-11-25","2013-11-09",NA,17,NA,"01-704-1065_6"
"CDISCPILOT01","AE","01-704-1065",5,"E14","MALAISE","MALAISE",NA,"MALAISE",NA,"HLT_0456",NA,"HLGT_0178",NA,"GENERAL DISORDERS AND ADMINISTRATION SITE CONDITIONS",NA,"GENERAL DISORDERS AND ADMINISTRATION SITE CONDITIONS",NA,"MILD","N",NA,"POSSIBLE","NOT RECOVERED/NOT RESOLVED","N","N","N","N","N","N","N","2013-11-25","2013-11-09",NA,17,NA,"01-704-1065_5"
"CDISCPILOT01","AE","01-704-1065",2,"E07","RASH","RASH",NA,"RASH",NA,"HLT_0762",NA,"HLGT_0198",NA,"SKIN AND SUBCUTANEOUS TISSUE DISORDERS",NA,"SKIN AND SUBCUTANEOUS TISSUE DISORDERS",NA,"MILD","N",NA,"PROBABLE","NOT RECOVERED/NOT RESOLVED","N","N","N","N","N","N","N","2013-11-07","2013-10-27",NA,4,NA,"01-704-1065_2"
"CDISCPILOT01","AE","01-704-1065",10,"E19","SINUS BRADYCARDIA","BRADYCARDIA SINUS",NA,"SINUS BRADYCARDIA",NA,"HLT_0644",NA,"HLGT_0500",NA,"CARDIAC DISORDERS",NA,"CARDIAC DISORDERS",NA,"MILD","N",NA,"NONE","NOT RECOVERED/NOT RESOLVED","N","N","N","N","N","N","N","2013-12-24","2013-12-24",NA,62,NA,"01-704-1065_10"
"CDISCPILOT01","AE","01-704-1074",2,"E09","ERYTHEMA","SKIN RED",NA,"ERYTHEMA",NA,"HLT_0284",NA,"HLGT_0192",NA,"SKIN AND SUBCUTANEOUS TISSUE DISORDERS",NA,"SKIN AND SUBCUTANEOUS TISSUE DISORDERS",NA,"MILD","N",NA,"PROBABLE","NOT RECOVERED/NOT RESOLVED","N","N","N","N","N","N","N","2014-02-09","2014-02-09",NA,19,NA,"01-704-1074_2"
"CDISCPILOT01","AE","01-704-1074",1,"E08","PRURITUS","ITCHING",NA,"PRURITUS",NA,"HLT_0778",NA,"HLGT_0695",NA,"SKIN AND SUBCUTANEOUS TISSUE DISORDERS",NA,"SKIN AND SUBCUTANEOUS TISSUE DISORDERS",NA,"MILD","N",NA,"PROBABLE","NOT RECOVERED/NOT RESOLVED","N","N","N","N","N","N","N","2014-01-22","2014-01-22",NA,1,NA,"01-704-1074_1"
"CDISCPILOT01","AE","01-704-1093",1,"E02","BLOOD GLUCOSE INCREASED","GLUCOSE INCREASED",NA,"BLOOD GLUCOSE INCREASED",NA,"HLT_0450",NA,"HLGT_0188",NA,"INVESTIGATIONS",NA,"INVESTIGATIONS",NA,"MILD","N",NA,"NONE","NOT RECOVERED/NOT RESOLVED","N","N","N","N","N","N","N","2013-03-30","2013-03-30","2013-04-13",16,30,"01-704-1093_1"
"CDISCPILOT01","AE","01-704-1093",2,"E02","BLOOD GLUCOSE INCREASED","GLUCOSE INCREASED",NA,"BLOOD GLUCOSE INCREASED",NA,"HLT_0450",NA,"HLGT_0188",NA,"INVESTIGATIONS",NA,"INVESTIGATIONS",NA,"MILD","N",NA,"NONE","RECOVERED/RESOLVED","N","N","N","N","N","N","N","2013-04-17","2013-03-30","2013-04-13",16,30,"01-704-1093_2"
"CDISCPILOT01","AE","01-704-1093",4,"E06","PRURITUS","ITCHING",NA,"PRURITUS",NA,"HLT_0778",NA,"HLGT_0695",NA,"SKIN AND SUBCUTANEOUS TISSUE DISORDERS",NA,"SKIN AND SUBCUTANEOUS TISSUE DISORDERS",NA,"MILD","N",NA,"PROBABLE","NOT RECOVERED/NOT RESOLVED","N","N","N","N","N","N","N","2013-05-11","2013-05-04",NA,51,NA,"01-704-1093_4"
"CDISCPILOT01","AE","01-704-1093",3,"E05","RASH","RASH",NA,"RASH",NA,"HLT_0762",NA,"HLGT_0198",NA,"SKIN AND SUBCUTANEOUS TISSUE DISORDERS",NA,"SKIN AND SUBCUTANEOUS TISSUE DISORDERS",NA,"MILD","N",NA,"PROBABLE","NOT RECOVERED/NOT RESOLVED","N","N","N","N","N","N","N","2013-05-11","2013-05-04",NA,51,NA,"01-704-1093_3"
"CDISCPILOT01","AE","01-704-1114",1,"E06","ERYTHEMA","REDNESS",NA,"ERYTHEMA",NA,"HLT_0284",NA,"HLGT_0192",NA,"SKIN AND SUBCUTANEOUS TISSUE DISORDERS",NA,"SKIN AND SUBCUTANEOUS TISSUE DISORDERS",NA,"MILD","N",NA,"PROBABLE","RECOVERED/RESOLVED","N","N","N","N","N","N","N","2013-03-13","2013-02-21","2013-02-23",30,32,"01-704-1114_1"
"CDISCPILOT01","AE","01-704-1114",5,"E07","INFLUENZA","FLU",NA,"INFLUENZA",NA,"HLT_0125",NA,"HLGT_0081",NA,"INFECTIONS AND INFESTATIONS",NA,"INFECTIONS AND INFESTATIONS",NA,"MILD","N",NA,"NONE","RECOVERED/RESOLVED","N","N","N","N","N","N","N","2013-06-16","2013-06-07","2013-06-13",136,142,"01-704-1114_5"
"CDISCPILOT01","AE","01-704-1114",2,"E03","OEDEMA","EDEMA",NA,"OEDEMA",NA,"HLT_0656",NA,"HLGT_0036",NA,"GENERAL DISORDERS AND ADMINISTRATION SITE CONDITIONS",NA,"GENERAL DISORDERS AND ADMINISTRATION SITE CONDITIONS",NA,"MILD","N",NA,"PROBABLE","NOT RECOVERED/NOT RESOLVED","N","N","N","N","N","N","N","2013-03-13","2013-02-23",NA,32,NA,"01-704-1114_2"
"CDISCPILOT01","AE","01-704-1114",4,"E05","PRURITUS","ITCHING",NA,"PRURITUS",NA,"HLT_0778",NA,"HLGT_0695",NA,"SKIN AND SUBCUTANEOUS TISSUE DISORDERS",NA,"SKIN AND SUBCUTANEOUS TISSUE DISORDERS",NA,"MILD","N",NA,"PROBABLE","NOT RECOVERED/NOT RESOLVED","N","N","N","N","N","N","N","2013-03-26","2013-03-23",NA,60,NA,"01-704-1114_4"
"CDISCPILOT01","AE","01-704-1114",3,"E04","RASH","RASH",NA,"RASH",NA,"HLT_0762",NA,"HLGT_0198",NA,"SKIN AND SUBCUTANEOUS TISSUE DISORDERS",NA,"SKIN AND SUBCUTANEOUS TISSUE DISORDERS",NA,"MILD","N",NA,"PROBABLE","NOT RECOVERED/NOT RESOLVED","N","N","N","N","N","N","N","2013-03-26","2013-03-23",NA,60,NA,"01-704-1114_3"
"CDISCPILOT01","AE","01-704-1120",2,"E02","NASOPHARYNGITIS","COLD",NA,"NASOPHARYNGITIS",NA,"HLT_0036",NA,"HLGT_0709",NA,"INFECTIONS AND INFESTATIONS",NA,"INFECTIONS AND INFESTATIONS",NA,"MILD","N",NA,"NONE","NOT RECOVERED/NOT RESOLVED","N","N","N","N","N","N","N","2013-12-29","2013-12-28","2014-02-03",27,64,"01-704-1120_2"
"CDISCPILOT01","AE","01-704-1120",6,"E02","NASOPHARYNGITIS","COLD",NA,"NASOPHARYNGITIS",NA,"HLT_0036",NA,"HLGT_0709",NA,"INFECTIONS AND INFESTATIONS",NA,"INFECTIONS AND INFESTATIONS",NA,"MILD","N",NA,"NONE","RECOVERED/RESOLVED","N","N","N","N","N","N","N","2014-03-10","2013-12-28","2014-02-03",27,64,"01-704-1120_6"
"CDISCPILOT01","AE","01-704-1120",4,"E04","PRURITUS","ITCHING",NA,"PRURITUS",NA,"HLT_0778",NA,"HLGT_0695",NA,"SKIN AND SUBCUTANEOUS TISSUE DISORDERS",NA,"SKIN AND SUBCUTANEOUS TISSUE DISORDERS",NA,"MILD","N",NA,"PROBABLE","NOT RECOVERED/NOT RESOLVED","N","N","N","N","N","N","N","2014-01-27","2014-01-27",NA,57,NA,"01-704-1120_4"
"CDISCPILOT01","AE","01-704-1120",5,"E04","PRURITUS","ITCHING",NA,"PRURITUS",NA,"HLT_0778",NA,"HLGT_0695",NA,"SKIN AND SUBCUTANEOUS TISSUE DISORDERS",NA,"SKIN AND SUBCUTANEOUS TISSUE DISORDERS",NA,"MODERATE","N",NA,"PROBABLE","NOT RECOVERED/NOT RESOLVED","N","N","N","N","N","N","N","2014-02-03","2014-01-27",NA,57,NA,"01-704-1120_5"
"CDISCPILOT01","AE","01-704-1120",1,"E01","RASH","RASH",NA,"RASH",NA,"HLT_0762",NA,"HLGT_0198",NA,"SKIN AND SUBCUTANEOUS TISSUE DISORDERS",NA,"SKIN AND SUBCUTANEOUS TISSUE DISORDERS",NA,"MILD","N",NA,"PROBABLE","NOT RECOVERED/NOT RESOLVED","N","N","N","N","N","N","N","2013-12-29","2013-12-23",NA,22,NA,"01-704-1120_1"
"CDISCPILOT01","AE","01-704-1120",3,"E01","RASH","RASH",NA,"RASH",NA,"HLT_0762",NA,"HLGT_0198",NA,"SKIN AND SUBCUTANEOUS TISSUE DISORDERS",NA,"SKIN AND SUBCUTANEOUS TISSUE DISORDERS",NA,"MODERATE","N",NA,"PROBABLE","NOT RECOVERED/NOT RESOLVED","N","N","N","N","N","N","N","2014-01-27","2013-12-23",NA,22,NA,"01-704-1120_3"
"CDISCPILOT01","AE","01-704-1135",1,"E01","RASH","RASH",NA,"RASH",NA,"HLT_0762",NA,"HLGT_0198",NA,"SKIN AND SUBCUTANEOUS TISSUE DISORDERS",NA,"SKIN AND SUBCUTANEOUS TISSUE DISORDERS",NA,"MILD","N",NA,NA,"NOT RECOVERED/NOT RESOLVED","N","N","N","N","N","N","N","2013-12-11","2013-12-08",NA,39,NA,"01-704-1135_1"
"CDISCPILOT01","AE","01-704-1135",2,"E01","RASH","RASH",NA,"RASH",NA,"HLT_0762",NA,"HLGT_0198",NA,"SKIN AND SUBCUTANEOUS TISSUE DISORDERS",NA,"SKIN AND SUBCUTANEOUS TISSUE DISORDERS",NA,"SEVERE","N",NA,NA,"NOT RECOVERED/NOT RESOLVED","N","N","N","N","N","N","N","2014-02-19","2013-12-08",NA,39,NA,"01-704-1135_2"
"CDISCPILOT01","AE","01-704-1164",1,"E02","INFLUENZA","FLU",NA,"INFLUENZA",NA,"HLT_0125",NA,"HLGT_0081",NA,"INFECTIONS AND INFESTATIONS",NA,"INFECTIONS AND INFESTATIONS",NA,"MILD","N",NA,"NONE","NOT RECOVERED/NOT RESOLVED","N","N","N","N","N","N","N","2012-10-04","2012-09-27","2012-10-07",9,19,"01-704-1164_1"
"CDISCPILOT01","AE","01-704-1164",2,"E02","INFLUENZA","FLU",NA,"INFLUENZA",NA,"HLT_0125",NA,"HLGT_0081",NA,"INFECTIONS AND INFESTATIONS",NA,"INFECTIONS AND INFESTATIONS",NA,"MILD","N",NA,"NONE","RECOVERED/RESOLVED","N","N","N","N","N","N","N","2012-10-21","2012-09-27","2012-10-07",9,19,"01-704-1164_2"
"CDISCPILOT01","AE","01-704-1164",3,"E07","OEDEMA PERIPHERAL","SWELLING OF FEET",NA,"OEDEMA PERIPHERAL",NA,"HLT_0661",NA,"HLGT_0137",NA,"GENERAL DISORDERS AND ADMINISTRATION SITE CONDITIONS",NA,"GENERAL DISORDERS AND ADMINISTRATION SITE CONDITIONS",NA,"MILD","N",NA,"NONE","RECOVERED/RESOLVED","N","N","N","N","N","N","N","2013-02-14","2013-02-04","2013-02-13",139,148,"01-704-1164_3"
"CDISCPILOT01","AE","01-704-1218",1,"E05","BLOOD GLUCOSE INCREASED","GLUCOSE INCREASED",NA,"BLOOD GLUCOSE INCREASED",NA,"HLT_0450",NA,"HLGT_0188",NA,"INVESTIGATIONS",NA,"INVESTIGATIONS",NA,"MILD","N",NA,"NONE","NOT RECOVERED/NOT RESOLVED","N","N","N","N","N","N","N","2012-12-30","2012-12-30",NA,42,NA,"01-704-1218_1"
"CDISCPILOT01","AE","01-704-1241",2,"E03","DYSPNOEA","RESPIRATION LABORED",NA,"DYSPNOEA",NA,"HLT_0296",NA,"HLGT_0255",NA,"RESPIRATORY, THORACIC AND MEDIASTINAL DISORDERS",NA,"RESPIRATORY, THORACIC AND MEDIASTINAL DISORDERS",NA,"MILD","N",NA,"NONE","NOT RECOVERED/NOT RESOLVED","N","N","N","N","N","N","N","2013-10-09","2013-09-28",NA,35,NA,"01-704-1241_2"
"CDISCPILOT01","AE","01-704-1241",1,"E04","RASH","RASH",NA,"RASH",NA,"HLT_0762",NA,"HLGT_0198",NA,"SKIN AND SUBCUTANEOUS TISSUE DISORDERS",NA,"SKIN AND SUBCUTANEOUS TISSUE DISORDERS",NA,"MODERATE","N",NA,"NONE","NOT RECOVERED/NOT RESOLVED","N","N","N","N","N","N","N","2013-10-09","2013-08-14",NA,-11,NA,"01-704-1241_1"
"CDISCPILOT01","AE","01-704-1266",4,"E13","ATRIAL FIBRILLATION","ATRIAL FIBRILLATION",NA,"ATRIAL FIBRILLATION",NA,"HLT_0365",NA,"HLGT_0012",NA,"CARDIAC DISORDERS",NA,"CARDIAC DISORDERS",NA,"MILD","N",NA,"NONE","NOT RECOVERED/NOT RESOLVED","N","N","N","N","N","N","N","2013-11-08","2013-11-08","2013-12-06",27,55,"01-704-1266_4"
"CDISCPILOT01","AE","01-704-1266",13,"E13","ATRIAL FIBRILLATION","ATRIAL FIBRILLATION",NA,"ATRIAL FIBRILLATION",NA,"HLT_0365",NA,"HLGT_0012",NA,"CARDIAC DISORDERS",NA,"CARDIAC DISORDERS",NA,"MILD","N",NA,"NONE","RECOVERED/RESOLVED","N","N","N","N","N","N","N","2014-01-03","2013-11-08","2013-12-06",27,55,"01-704-1266_13"
"CDISCPILOT01","AE","01-704-1266",3,"E12","ATRIAL FLUTTER","ATRIAL FLUTTER",NA,"ATRIAL FLUTTER",NA,"HLT_0477",NA,"HLGT_0627",NA,"CARDIAC DISORDERS",NA,"CARDIAC DISORDERS",NA,"MILD","N",NA,"NONE","NOT RECOVERED/NOT RESOLVED","N","N","N","N","N","N","N","2013-10-27","2013-10-27","2013-11-08",15,27,"01-704-1266_3"
"CDISCPILOT01","AE","01-704-1266",5,"E12","ATRIAL FLUTTER","ATRIAL FLUTTER",NA,"ATRIAL FLUTTER",NA,"HLT_0477",NA,"HLGT_0627",NA,"CARDIAC DISORDERS",NA,"CARDIAC DISORDERS",NA,"MILD","N",NA,"NONE","RECOVERED/RESOLVED","N","N","N","N","N","N","N","2013-11-10","2013-10-27","2013-11-08",15,27,"01-704-1266_5"
"CDISCPILOT01","AE","01-704-1266",7,"E16","BLISTER","BLISTERING",NA,"BLISTER",NA,"HLT_0752",NA,"HLGT_0267",NA,"SKIN AND SUBCUTANEOUS TISSUE DISORDERS",NA,"SKIN AND SUBCUTANEOUS TISSUE DISORDERS",NA,"MILD","N",NA,"PROBABLE","NOT RECOVERED/NOT RESOLVED","N","N","N","N","N","N","N","2013-11-22","2013-11-15","2013-12-14",34,63,"01-704-1266_7"
"CDISCPILOT01","AE","01-704-1266",14,"E16","BLISTER","BLISTERING",NA,"BLISTER",NA,"HLT_0752",NA,"HLGT_0267",NA,"SKIN AND SUBCUTANEOUS TISSUE DISORDERS",NA,"SKIN AND SUBCUTANEOUS TISSUE DISORDERS",NA,"MILD","N",NA,"PROBABLE","RECOVERED/RESOLVED","N","N","N","N","N","N","N","2014-01-03","2013-11-15","2013-12-14",34,63,"01-704-1266_14"
"CDISCPILOT01","AE","01-704-1266",2,"E10","ERYTHEMA","ERYTHEMA",NA,"ERYTHEMA",NA,"HLT_0284",NA,"HLGT_0192",NA,"SKIN AND SUBCUTANEOUS TISSUE DISORDERS",NA,"SKIN AND SUBCUTANEOUS TISSUE DISORDERS",NA,"MILD","N",NA,"PROBABLE","NOT RECOVERED/NOT RESOLVED","N","N","N","N","N","N","N","2013-10-27","2013-10-17","2013-12-23",5,72,"01-704-1266_2"
"CDISCPILOT01","AE","01-704-1266",9,"E10","ERYTHEMA","ERYTHEMA",NA,"ERYTHEMA",NA,"HLT_0284",NA,"HLGT_0192",NA,"SKIN AND SUBCUTANEOUS TISSUE DISORDERS",NA,"SKIN AND SUBCUTANEOUS TISSUE DISORDERS",NA,"MODERATE","N",NA,"PROBABLE","NOT RECOVERED/NOT RESOLVED","N","N","N","N","N","N","N","2013-12-06","2013-10-17","2013-12-23",5,72,"01-704-1266_9"
"CDISCPILOT01","AE","01-704-1266",12,"E10","ERYTHEMA","ERYTHEMA",NA,"ERYTHEMA",NA,"HLT_0284",NA,"HLGT_0192",NA,"SKIN AND SUBCUTANEOUS TISSUE DISORDERS",NA,"SKIN AND SUBCUTANEOUS TISSUE DISORDERS",NA,"MODERATE","N",NA,"PROBABLE","RECOVERED/RESOLVED","N","N","N","N","N","N","N","2014-01-03","2013-10-17","2013-12-23",5,72,"01-704-1266_12"
"CDISCPILOT01","AE","01-704-1266",11,"E18","ERYTHEMA","REDNESS",NA,"ERYTHEMA",NA,"HLT_0284",NA,"HLGT_0192",NA,"SKIN AND SUBCUTANEOUS TISSUE DISORDERS",NA,"SKIN AND SUBCUTANEOUS TISSUE DISORDERS",NA,"MILD","N",NA,"PROBABLE","NOT RECOVERED/NOT RESOLVED","N","N","N","N","N","N","N","2013-12-06","2013-12-06","2013-12-23",55,72,"01-704-1266_11"
"CDISCPILOT01","AE","01-704-1266",16,"E18","ERYTHEMA","REDNESS",NA,"ERYTHEMA",NA,"HLT_0284",NA,"HLGT_0192",NA,"SKIN AND SUBCUTANEOUS TISSUE DISORDERS",NA,"SKIN AND SUBCUTANEOUS TISSUE DISORDERS",NA,"MILD","N",NA,"PROBABLE","RECOVERED/RESOLVED","N","N","N","N","N","N","N","2014-01-03","2013-12-06","2013-12-23",55,72,"01-704-1266_16"
"CDISCPILOT01","AE","01-704-1266",6,"E15","HYPERHIDROSIS","PERSPIRATION EXCESSIVE",NA,"HYPERHIDROSIS",NA,"HLT_0587",NA,"HLGT_0005",NA,"SKIN AND SUBCUTANEOUS TISSUE DISORDERS",NA,"SKIN AND SUBCUTANEOUS TISSUE DISORDERS",NA,"MILD","N",NA,"POSSIBLE","NOT RECOVERED/NOT RESOLVED","N","N","N","N","N","N","N","2013-11-10","2013-11-09","2013-12-04",28,53,"01-704-1266_6"
"CDISCPILOT01","AE","01-704-1266",10,"E15","HYPERHIDROSIS","PERSPIRATION EXCESSIVE",NA,"HYPERHIDROSIS",NA,"HLT_0587",NA,"HLGT_0005",NA,"SKIN AND SUBCUTANEOUS TISSUE DISORDERS",NA,"SKIN AND SUBCUTANEOUS TISSUE DISORDERS",NA,"MILD","N",NA,"POSSIBLE","RECOVERED/RESOLVED","N","N","N","N","N","N","N","2013-12-06","2013-11-09","2013-12-04",28,53,"01-704-1266_10"
"CDISCPILOT01","AE","01-704-1266",8,"E17","PRURITUS","ITCHING",NA,"PRURITUS",NA,"HLT_0778",NA,"HLGT_0695",NA,"SKIN AND SUBCUTANEOUS TISSUE DISORDERS",NA,"SKIN AND SUBCUTANEOUS TISSUE DISORDERS",NA,"MILD","N",NA,"PROBABLE","NOT RECOVERED/NOT RESOLVED","N","N","N","N","N","N","N","2013-11-22","2013-11-15","2013-12-23",34,72,"01-704-1266_8"
"CDISCPILOT01","AE","01-704-1266",15,"E17","PRURITUS","ITCHING",NA,"PRURITUS",NA,"HLT_0778",NA,"HLGT_0695",NA,"SKIN AND SUBCUTANEOUS TISSUE DISORDERS",NA,"SKIN AND SUBCUTANEOUS TISSUE DISORDERS",NA,"MILD","N",NA,"PROBABLE","RECOVERED/RESOLVED","N","N","N","N","N","N","N","2014-01-03","2013-11-15","2013-12-23",34,72,"01-704-1266_15"
"CDISCPILOT01","AE","01-704-1266",1,"E11","SEASONAL ALLERGY","HAY FEVER",NA,"SEASONAL ALLERGY",NA,"HLT_0714",NA,"HLGT_0782",NA,"IMMUNE SYSTEM DISORDERS",NA,"IMMUNE SYSTEM DISORDERS",NA,"MILD","N",NA,"NONE","NOT RECOVERED/NOT RESOLVED","N","N","N","N","N","N","N","2013-10-11","2013-10-06",NA,-7,NA,"01-704-1266_1"
"CDISCPILOT01","AE","01-704-1323",4,"E10","OEDEMA","EDEMA",NA,"OEDEMA",NA,"HLT_0656",NA,"HLGT_0036",NA,"GENERAL DISORDERS AND ADMINISTRATION SITE CONDITIONS",NA,"GENERAL DISORDERS AND ADMINISTRATION SITE CONDITIONS",NA,"MILD","N",NA,"PROBABLE","NOT RECOVERED/NOT RESOLVED","N","N","N","N","N","N","N","2013-08-04","2013-08-04",NA,28,NA,"01-704-1323_4"
"CDISCPILOT01","AE","01-704-1323",3,"E09","PRURITUS","ITCHING",NA,"PRURITUS",NA,"HLT_0778",NA,"HLGT_0695",NA,"SKIN AND SUBCUTANEOUS TISSUE DISORDERS",NA,"SKIN AND SUBCUTANEOUS TISSUE DISORDERS",NA,"MILD","N",NA,"PROBABLE","NOT RECOVERED/NOT RESOLVED","N","N","N","N","N","N","N","2013-08-04","2013-08-04",NA,28,NA,"01-704-1323_3"
"CDISCPILOT01","AE","01-704-1323",2,"E08","RASH","RASH",NA,"RASH",NA,"HLT_0762",NA,"HLGT_0198",NA,"SKIN AND SUBCUTANEOUS TISSUE DISORDERS",NA,"SKIN AND SUBCUTANEOUS TISSUE DISORDERS",NA,"MILD","N",NA,"PROBABLE","NOT RECOVERED/NOT RESOLVED","N","N","N","N","N","N","N","2013-08-04","2013-08-04",NA,28,NA,"01-704-1323_2"
"CDISCPILOT01","AE","01-704-1323",1,"E07","VIRAL INFECTION","VIRAL INFECTION",NA,"VIRAL INFECTION",NA,"HLT_0733",NA,"HLGT_0408",NA,"INFECTIONS AND INFESTATIONS",NA,"INFECTIONS AND INFESTATIONS",NA,"MILD","N",NA,"NONE","RECOVERED/RESOLVED","N","N","N","N","N","N","N","2013-08-04","2013-07-30","2013-08-03",23,27,"01-704-1323_1"
"CDISCPILOT01","AE","01-704-1325",2,"E05","PRURITUS","ITCHING",NA,"PRURITUS",NA,"HLT_0778",NA,"HLGT_0695",NA,"SKIN AND SUBCUTANEOUS TISSUE DISORDERS",NA,"SKIN AND SUBCUTANEOUS TISSUE DISORDERS",NA,"MILD","N",NA,"PROBABLE","NOT RECOVERED/NOT RESOLVED","N","N","N","N","N","N","N","2014-07-16","2014-07-04",NA,73,NA,"01-704-1325_2"
"CDISCPILOT01","AE","01-704-1325",1,"E04","RASH","RASH",NA,"RASH",NA,"HLT_0762",NA,"HLGT_0198",NA,"SKIN AND SUBCUTANEOUS TISSUE DISORDERS",NA,"SKIN AND SUBCUTANEOUS TISSUE DISORDERS",NA,"MILD","N",NA,"PROBABLE","NOT RECOVERED/NOT RESOLVED","N","N","N","N","N","N","N","2014-06-04","2014-05-23",NA,31,NA,"01-704-1325_1"
"CDISCPILOT01","AE","01-704-1332",4,"E05","BURNING SENSATION","BURNING SENSATION",NA,"BURNING SENSATION",NA,"HLT_0775",NA,"HLGT_0456",NA,"NERVOUS SYSTEM DISORDERS",NA,"NERVOUS SYSTEM DISORDERS",NA,"MILD","N",NA,"PROBABLE","NOT RECOVERED/NOT RESOLVED","N","N","N","N","N","N","N","2014-02-03","2014-02-03",NA,57,NA,"01-704-1332_4"
"CDISCPILOT01","AE","01-704-1332",2,"E02","PRURITUS","ITCHING",NA,"PRURITUS",NA,"HLT_0778",NA,"HLGT_0695",NA,"SKIN AND SUBCUTANEOUS TISSUE DISORDERS",NA,"SKIN AND SUBCUTANEOUS TISSUE DISORDERS",NA,"MILD","N",NA,"PROBABLE","NOT RECOVERED/NOT RESOLVED","N","N","N","N","N","N","N","2014-01-20","2014-01-18","2014-02-24",41,78,"01-704-1332_2"
"CDISCPILOT01","AE","01-704-1332",6,"E02","PRURITUS","ITCHING",NA,"PRURITUS",NA,"HLT_0778",NA,"HLGT_0695",NA,"SKIN AND SUBCUTANEOUS TISSUE DISORDERS",NA,"SKIN AND SUBCUTANEOUS TISSUE DISORDERS",NA,"MILD","N",NA,"PROBABLE","RECOVERED/RESOLVED","N","N","N","N","N","N","N","2014-02-24","2014-01-18","2014-02-24",41,78,"01-704-1332_6"
"CDISCPILOT01","AE","01-704-1332",1,"E01","RASH","RASH",NA,"RASH",NA,"HLT_0762",NA,"HLGT_0198",NA,"SKIN AND SUBCUTANEOUS TISSUE DISORDERS",NA,"SKIN AND SUBCUTANEOUS TISSUE DISORDERS",NA,"MILD","N",NA,"NONE","NOT RECOVERED/NOT RESOLVED","N","N","N","N","N","N","N","2013-12-23","2013-12-10","2014-02-24",2,78,"01-704-1332_1"
"CDISCPILOT01","AE","01-704-1332",3,"E01","RASH","RASH",NA,"RASH",NA,"HLT_0762",NA,"HLGT_0198",NA,"SKIN AND SUBCUTANEOUS TISSUE DISORDERS",NA,"SKIN AND SUBCUTANEOUS TISSUE DISORDERS",NA,"MODERATE","N",NA,"NONE","NOT RECOVERED/NOT RESOLVED","N","N","N","N","N","N","N","2014-02-03","2013-12-10","2014-02-24",2,78,"01-704-1332_3"
"CDISCPILOT01","AE","01-704-1332",5,"E01","RASH","RASH",NA,"RASH",NA,"HLT_0762",NA,"HLGT_0198",NA,"SKIN AND SUBCUTANEOUS TISSUE DISORDERS",NA,"SKIN AND SUBCUTANEOUS TISSUE DISORDERS",NA,"MODERATE","N",NA,"NONE","RECOVERED/RESOLVED","N","N","N","N","N","N","N","2014-02-24","2013-12-10","2014-02-24",2,78,"01-704-1332_5"
"CDISCPILOT01","AE","01-704-1351",2,"E03","FLATULENCE","GAS",NA,"FLATULENCE",NA,"HLT_0356",NA,"HLGT_0504",NA,"GASTROINTESTINAL DISORDERS",NA,"GASTROINTESTINAL DISORDERS",NA,"MILD","N",NA,"NONE","NOT RECOVERED/NOT RESOLVED","N","N","N","N","N","N","N","2013-11-07","2013-10-27","2014-04-04",16,175,"01-704-1351_2"
"CDISCPILOT01","AE","01-704-1351",4,"E03","FLATULENCE","GAS",NA,"FLATULENCE",NA,"HLT_0356",NA,"HLGT_0504",NA,"GASTROINTESTINAL DISORDERS",NA,"GASTROINTESTINAL DISORDERS",NA,"MILD","N",NA,"NONE","RECOVERED/RESOLVED","N","N","N","N","N","N","N","2014-04-18","2013-10-27","2014-04-04",16,175,"01-704-1351_4"
"CDISCPILOT01","AE","01-704-1351",1,"E02","POLLAKIURIA","URINARY FREQUENCY",NA,"POLLAKIURIA",NA,"HLT_0393",NA,"HLGT_0560",NA,"RENAL AND URINARY DISORDERS",NA,"RENAL AND URINARY DISORDERS",NA,"MILD","N",NA,"NONE","NOT RECOVERED/NOT RESOLVED","N","N","N","N","N","N","N","2013-11-07","2013-10-27","2014-04-04",16,175,"01-704-1351_1"
"CDISCPILOT01","AE","01-704-1351",3,"E02","POLLAKIURIA","URINARY FREQUENCY",NA,"POLLAKIURIA",NA,"HLT_0393",NA,"HLGT_0560",NA,"RENAL AND URINARY DISORDERS",NA,"RENAL AND URINARY DISORDERS",NA,"MILD","N",NA,"NONE","RECOVERED/RESOLVED","N","N","N","N","N","N","N","2014-04-18","2013-10-27","2014-04-04",16,175,"01-704-1351_3"
"CDISCPILOT01","AE","01-704-1388",1,"E01","HEADACHE","HEADACHE",NA,"HEADACHE",NA,"HLT_0064",NA,"HLGT_0344",NA,"NERVOUS SYSTEM DISORDERS",NA,"NERVOUS SYSTEM DISORDERS",NA,"MODERATE","N",NA,"NONE","NOT RECOVERED/NOT RESOLVED","N","N","N","N","N","N","N","2013-03-27","2012-08-23",NA,-106,NA,"01-704-1388_1"
"CDISCPILOT01","AE","01-704-1435",1,"E08","PARKINSON'S DISEASE","DISEASE PARKINSON'S",NA,"PARKINSON'S DISEASE",NA,"HLT_0279",NA,"HLGT_0313",NA,"NERVOUS SYSTEM DISORDERS",NA,"NERVOUS SYSTEM DISORDERS",NA,"MILD","N",NA,"NONE","NOT RECOVERED/NOT RESOLVED","N","N","N","N","N","N","N","2013-01-12","2013-01-06",NA,51,NA,"01-704-1435_1"
"CDISCPILOT01","AE","01-704-1445",1,"E06","COMPLETED SUICIDE","SUICIDE",NA,"COMPLETED SUICIDE",NA,"HLT_0625",NA,"HLGT_0013",NA,"PSYCHIATRIC DISORDERS",NA,"PSYCHIATRIC DISORDERS",NA,"SEVERE","N",NA,"NONE","FATAL","N","N","N","Y","N","N","N","2014-11-01","2014-10-31","2014-10-31",174,174,"01-704-1445_1"
"CDISCPILOT01","AE","01-705-1031",1,"E02","RASH","RASH",NA,"RASH",NA,"HLT_0762",NA,"HLGT_0198",NA,"SKIN AND SUBCUTANEOUS TISSUE DISORDERS",NA,"SKIN AND SUBCUTANEOUS TISSUE DISORDERS",NA,"MILD","N",NA,"POSSIBLE","NOT RECOVERED/NOT RESOLVED","N","N","N","N","N","N","N","2013-12-25","2013-12-25",NA,29,NA,"01-705-1031_1"
"CDISCPILOT01","AE","01-705-1059",1,"E02","ERYTHEMA","ERYTHEMA",NA,"ERYTHEMA",NA,"HLT_0284",NA,"HLGT_0192",NA,"SKIN AND SUBCUTANEOUS TISSUE DISORDERS",NA,"SKIN AND SUBCUTANEOUS TISSUE DISORDERS",NA,"MODERATE","N",NA,"PROBABLE","NOT RECOVERED/NOT RESOLVED","N","N","N","N","N","N","N","2013-11-07","2013-11-02",NA,90,NA,"01-705-1059_1"
"CDISCPILOT01","AE","01-705-1186",1,"E02","HYPERBILIRUBINAEMIA","HYPERBILIRUBINEMIA",NA,"HYPERBILIRUBINAEMIA",NA,"HLT_0478",NA,"HLGT_0087",NA,"HEPATOBILIARY DISORDERS",NA,"HEPATOBILIARY DISORDERS",NA,"MODERATE","N",NA,"REMOTE","NOT RECOVERED/NOT RESOLVED","N","N","N","N","N","N","N","2014-02-07","2014-01-26",NA,19,NA,"01-705-1186_1"
"CDISCPILOT01","AE","01-705-1199",1,"E06","DYSPEPSIA","PYROSIS",NA,"DYSPEPSIA",NA,"HLT_0244",NA,"HLGT_0716",NA,"GASTROINTESTINAL DISORDERS",NA,"GASTROINTESTINAL DISORDERS",NA,"MODERATE","N",NA,"POSSIBLE","NOT RECOVERED/NOT RESOLVED","N","N","N","N","N","N","N","2013-09-29","2013-09-17","2013-09-29",2,14,"01-705-1199_1"
"CDISCPILOT01","AE","01-705-1199",2,"E06","DYSPEPSIA","PYROSIS",NA,"DYSPEPSIA",NA,"HLT_0244",NA,"HLGT_0716",NA,"GASTROINTESTINAL DISORDERS",NA,"GASTROINTESTINAL DISORDERS",NA,"MODERATE","N",NA,"POSSIBLE","RECOVERED/RESOLVED","N","N","N","N","N","N","N","2013-09-29","2013-09-17","2013-09-29",2,14,"01-705-1199_2"
"CDISCPILOT01","AE","01-705-1280",1,"E01","PRURITUS","PRURITUS",NA,"PRURITUS",NA,"HLT_0778",NA,"HLGT_0695",NA,"SKIN AND SUBCUTANEOUS TISSUE DISORDERS",NA,"SKIN AND SUBCUTANEOUS TISSUE DISORDERS",NA,"MILD","N",NA,"POSSIBLE","NOT RECOVERED/NOT RESOLVED","N","N","N","N","N","N","N","2014-05-16","2014-04-20",NA,94,NA,"01-705-1280_1"
"CDISCPILOT01","AE","01-705-1281",2,"E05","EXCORIATION","ABRASIONS",NA,"EXCORIATION",NA,"HLT_0738",NA,"HLGT_0511",NA,"INJURY, POISONING AND PROCEDURAL COMPLICATIONS",NA,"INJURY, POISONING AND PROCEDURAL COMPLICATIONS",NA,"MODERATE","N",NA,"PROBABLE","NOT RECOVERED/NOT RESOLVED","N","N","N","N","N","N","N","2014-02-18","2014-01-30",NA,64,NA,"01-705-1281_2"
"CDISCPILOT01","AE","01-705-1281",1,"E04","PRURITUS","PRURITUS",NA,"PRURITUS",NA,"HLT_0778",NA,"HLGT_0695",NA,"SKIN AND SUBCUTANEOUS TISSUE DISORDERS",NA,"SKIN AND SUBCUTANEOUS TISSUE DISORDERS",NA,"MILD","N",NA,"POSSIBLE","NOT RECOVERED/NOT RESOLVED","N","N","N","N","N","N","N","2014-02-18","2014-01-30",NA,64,NA,"01-705-1281_1"
"CDISCPILOT01","AE","01-705-1281",3,"E04","PRURITUS","PRURITUS",NA,"PRURITUS",NA,"HLT_0778",NA,"HLGT_0695",NA,"SKIN AND SUBCUTANEOUS TISSUE DISORDERS",NA,"SKIN AND SUBCUTANEOUS TISSUE DISORDERS",NA,"MODERATE","N",NA,"POSSIBLE","NOT RECOVERED/NOT RESOLVED","N","N","N","N","N","N","N","2014-03-17","2014-01-30",NA,64,NA,"01-705-1281_3"
"CDISCPILOT01","AE","01-705-1292",2,"E02","ERYTHEMA","ERYTHEMA",NA,"ERYTHEMA",NA,"HLT_0284",NA,"HLGT_0192",NA,"SKIN AND SUBCUTANEOUS TISSUE DISORDERS",NA,"SKIN AND SUBCUTANEOUS TISSUE DISORDERS",NA,"MODERATE","N",NA,"PROBABLE","NOT RECOVERED/NOT RESOLVED","N","N","N","N","N","N","N","2014-03-03","2014-02-13",NA,123,NA,"01-705-1292_2"
"CDISCPILOT01","AE","01-705-1292",1,"E01","PRURITUS","ITCHY",NA,"PRURITUS",NA,"HLT_0778",NA,"HLGT_0695",NA,"SKIN AND SUBCUTANEOUS TISSUE DISORDERS",NA,"SKIN AND SUBCUTANEOUS TISSUE DISORDERS",NA,"MILD","N",NA,"PROBABLE","NOT RECOVERED/NOT RESOLVED","N","N","N","N","N","N","N","2013-10-29","2013-10-28",NA,15,NA,"01-705-1292_1"
"CDISCPILOT01","AE","01-705-1303",1,"E02","PRURITUS","PRURITUS",NA,"PRURITUS",NA,"HLT_0778",NA,"HLGT_0695",NA,"SKIN AND SUBCUTANEOUS TISSUE DISORDERS",NA,"SKIN AND SUBCUTANEOUS TISSUE DISORDERS",NA,"MILD","N",NA,"POSSIBLE","NOT RECOVERED/NOT RESOLVED","N","N","N","N","N","N","N","2014-02-10","2014-02-05","2014-03-03",52,78,"01-705-1303_1"
"CDISCPILOT01","AE","01-705-1303",3,"E02","PRURITUS","PRURITUS",NA,"PRURITUS",NA,"HLT_0778",NA,"HLGT_0695",NA,"SKIN AND SUBCUTANEOUS TISSUE DISORDERS",NA,"SKIN AND SUBCUTANEOUS TISSUE DISORDERS",NA,"MILD","N",NA,"POSSIBLE","RECOVERED/RESOLVED","N","N","N","N","N","N","N","2014-04-07","2014-02-05","2014-03-03",52,78,"01-705-1303_3"
"CDISCPILOT01","AE","01-705-1303",2,"E03","RASH","RASH",NA,"RASH",NA,"HLT_0762",NA,"HLGT_0198",NA,"SKIN AND SUBCUTANEOUS TISSUE DISORDERS",NA,"SKIN AND SUBCUTANEOUS TISSUE DISORDERS",NA,"MILD","N",NA,"POSSIBLE","NOT RECOVERED/NOT RESOLVED","N","N","N","N","N","N","N","2014-02-10","2014-02-05","2014-03-03",52,78,"01-705-1303_2"
"CDISCPILOT01","AE","01-705-1303",4,"E03","RASH","RASH",NA,"RASH",NA,"HLT_0762",NA,"HLGT_0198",NA,"SKIN AND SUBCUTANEOUS TISSUE DISORDERS",NA,"SKIN AND SUBCUTANEOUS TISSUE DISORDERS",NA,"MODERATE","N",NA,"POSSIBLE","RECOVERED/RESOLVED","N","N","N","N","N","N","N","2014-04-07","2014-02-05","2014-03-03",52,78,"01-705-1303_4"
"CDISCPILOT01","AE","01-705-1310",1,"E02","RASH PRURITIC","PRURITIC RASH",NA,"RASH PRURITIC",NA,"HLT_0127",NA,"HLGT_0753",NA,"SKIN AND SUBCUTANEOUS TISSUE DISORDERS",NA,"SKIN AND SUBCUTANEOUS TISSUE DISORDERS",NA,"MODERATE","N",NA,"POSSIBLE","NOT RECOVERED/NOT RESOLVED","N","N","N","N","N","N","N","2013-11-22","2013-11-14",NA,13,NA,"01-705-1310_1"
"CDISCPILOT01","AE","01-705-1310",2,"E03","WOUND HAEMORRHAGE","WOUND BLEEDING",NA,"WOUND HAEMORRHAGE",NA,"HLT_0154",NA,"HLGT_0162",NA,"VASCULAR DISORDERS",NA,"VASCULAR DISORDERS",NA,"MODERATE","N",NA,"POSSIBLE","NOT RECOVERED/NOT RESOLVED","N","N","N","N","N","N","N","2014-01-23","2014-01-09",NA,69,NA,"01-705-1310_2"
"CDISCPILOT01","AE","01-705-1349",4,"E06","ELECTROCARDIOGRAM ST SEGMENT DEPRESSION","ST SEGMENT DEPRESSED",NA,"ELECTROCARDIOGRAM ST SEGMENT DEPRESSION",NA,"HLT_0610",NA,"HLGT_0220",NA,"INVESTIGATIONS",NA,"INVESTIGATIONS",NA,"MILD","N",NA,"REMOTE","NOT RECOVERED/NOT RESOLVED","N","N","N","N","N","N","N","2013-08-25","2013-08-25",NA,169,NA,"01-705-1349_4"
"CDISCPILOT01","AE","01-705-1349",1,"E03","NAUSEA","NAUSEA",NA,"NAUSEA",NA,"HLT_0742",NA,"HLGT_0326",NA,"GASTROINTESTINAL DISORDERS",NA,"GASTROINTESTINAL DISORDERS",NA,"MILD","N",NA,"REMOTE","RECOVERED/RESOLVED","N","N","N","N","N","N","N","2013-04-17","2013-04-08","2013-04-08",30,30,"01-705-1349_1"
"CDISCPILOT01","AE","01-705-1349",3,"E05","VENTRICULAR HYPERTROPHY","LEFT VENTRICULAR HYPERTROPHY",NA,"VENTRICULAR HYPERTROPHY",NA,"HLT_0104",NA,"HLGT_0259",NA,"CARDIAC DISORDERS",NA,"CARDIAC DISORDERS",NA,"MILD","N",NA,"REMOTE","NOT RECOVERED/NOT RESOLVED","N","N","N","N","N","N","N","2013-08-25","2013-08-25",NA,169,NA,"01-705-1349_3"
"CDISCPILOT01","AE","01-705-1349",2,"E04","VOMITING","VOMITING",NA,"VOMITING",NA,"HLT_0016",NA,"HLGT_0350",NA,"GASTROINTESTINAL DISORDERS",NA,"GASTROINTESTINAL DISORDERS",NA,"MILD","N",NA,"REMOTE","RECOVERED/RESOLVED","N","N","N","N","N","N","N","2013-04-17","2013-04-11","2013-04-11",33,33,"01-705-1349_2"
"CDISCPILOT01","AE","01-705-1393",1,"E01","ABDOMINAL PAIN","ABDOMINAL CRAMPS",NA,"ABDOMINAL PAIN",NA,"HLT_0217",NA,"HLGT_0419",NA,"GASTROINTESTINAL DISORDERS",NA,"GASTROINTESTINAL DISORDERS",NA,"MILD","N",NA,"REMOTE","RECOVERED/RESOLVED","N","N","N","N","N","N","N","2012-09-27","2012-09-19","2012-09-24",13,18,"01-705-1393_1"
"CDISCPILOT01","AE","01-705-1393",3,"E05","COLON CANCER","COLON CANCER",NA,"COLON CANCER",NA,"HLT_0597",NA,"HLGT_0339",NA,"NEOPLASMS BENIGN, MALIGNANT AND UNSPECIFIED (INCL CYSTS AND POLYPS)",NA,"NEOPLASMS BENIGN, MALIGNANT AND UNSPECIFIED (INCL CYSTS AND POLYPS)",NA,"SEVERE","N",NA,"NONE","RECOVERED/RESOLVED","Y","N","N","N","Y","N","N","2013-02-20","2013-01-21","2013-01-24",137,140,"01-705-1393_3"
"CDISCPILOT01","AE","01-705-1393",2,"E04","PRURITUS","PRURITUS",NA,"PRURITUS",NA,"HLT_0778",NA,"HLGT_0695",NA,"SKIN AND SUBCUTANEOUS TISSUE DISORDERS",NA,"SKIN AND SUBCUTANEOUS TISSUE DISORDERS",NA,"MILD","N",NA,"PROBABLE","NOT RECOVERED/NOT RESOLVED","N","N","N","N","N","N","N","2012-12-05","2011-12-05","2013-02-20",-277,167,"01-705-1393_2"
"CDISCPILOT01","AE","01-705-1393",4,"E04","PRURITUS","PRURITUS",NA,"PRURITUS",NA,"HLT_0778",NA,"HLGT_0695",NA,"SKIN AND SUBCUTANEOUS TISSUE DISORDERS",NA,"SKIN AND SUBCUTANEOUS TISSUE DISORDERS",NA,"MILD","N",NA,"PROBABLE","RECOVERED/RESOLVED","N","N","N","N","N","N","N","2013-04-25","2011-12-05","2013-02-20",-277,167,"01-705-1393_4"
"CDISCPILOT01","AE","01-705-1431",2,"E04","ANXIETY","FEELING ANXIOUS",NA,"ANXIETY",NA,"HLT_0559",NA,"HLGT_0570",NA,"PSYCHIATRIC DISORDERS",NA,"PSYCHIATRIC DISORDERS",NA,"MILD","N",NA,"POSSIBLE","RECOVERED/RESOLVED","N","N","N","N","N","N","N","2013-07-07","2013-07-04","2013-07-06",12,14,"01-705-1431_2"
"CDISCPILOT01","AE","01-705-1431",1,"E05","RASH ERYTHEMATOUS","ERYTHEMATOUS RASH",NA,"RASH ERYTHEMATOUS",NA,"HLT_0336",NA,"HLGT_0701",NA,"SKIN AND SUBCUTANEOUS TISSUE DISORDERS",NA,"SKIN AND SUBCUTANEOUS TISSUE DISORDERS",NA,"MILD","N",NA,"PROBABLE","NOT RECOVERED/NOT RESOLVED","N","N","N","N","N","N","N","2013-06-23","2013-06-22",NA,-1,NA,"01-705-1431_1"
"CDISCPILOT01","AE","01-706-1041",1,"E02","ANXIETY","ANXIETY ATTACK",NA,"ANXIETY",NA,"HLT_0559",NA,"HLGT_0570",NA,"PSYCHIATRIC DISORDERS",NA,"PSYCHIATRIC DISORDERS",NA,"MODERATE","N",NA,"REMOTE","NOT RECOVERED/NOT RESOLVED","N","N","N","N","N","N","N","2014-01-14","2012-05",NA,NA,NA,"01-706-1041_1"
"CDISCPILOT01","AE","01-706-1041",7,"E02","ANXIETY","ANXIETY ATTACK",NA,"ANXIETY",NA,"HLT_0559",NA,"HLGT_0570",NA,"PSYCHIATRIC DISORDERS",NA,"PSYCHIATRIC DISORDERS",NA,"MILD","N",NA,"REMOTE","NOT RECOVERED/NOT RESOLVED","N","N","N","N","N","N","N","2014-05-06","2012-05",NA,NA,NA,"01-706-1041_7"
"CDISCPILOT01","AE","01-706-1041",2,"E01","DIARRHOEA","DIARRHEA",NA,"DIARRHOEA",NA,"HLT_0148",NA,"HLGT_0588",NA,"GASTROINTESTINAL DISORDERS",NA,"GASTROINTESTINAL DISORDERS",NA,"MILD","N",NA,"REMOTE","RECOVERED/RESOLVED","N","N","N","N","N","N","N","2014-01-14","2014-01-07","2014-01-08",8,9,"01-706-1041_2"
"CDISCPILOT01","AE","01-706-1041",3,"E07","EXCORIATION","ABRASIONS",NA,"EXCORIATION",NA,"HLT_0738",NA,"HLGT_0511",NA,"INJURY, POISONING AND PROCEDURAL COMPLICATIONS",NA,"INJURY, POISONING AND PROCEDURAL COMPLICATIONS",NA,"MILD","N",NA,"NONE","NOT RECOVERED/NOT RESOLVED","N","N","N","N","N","N","N","2014-01-14","2014-01-14","2014-01-28",15,29,"01-706-1041_3"
"CDISCPILOT01","AE","01-706-1041",5,"E07","EXCORIATION","ABRASIONS",NA,"EXCORIATION",NA,"HLT_0738",NA,"HLGT_0511",NA,"INJURY, POISONING AND PROCEDURAL COMPLICATIONS",NA,"INJURY, POISONING AND PROCEDURAL COMPLICATIONS",NA,"MILD","N",NA,"NONE","RECOVERED/RESOLVED","N","N","N","N","N","N","N","2014-01-30","2014-01-14","2014-01-28",15,29,"01-706-1041_5"
"CDISCPILOT01","AE","01-706-1041",4,"E03","IRRITABILITY","IRRITABILITY",NA,"IRRITABILITY",NA,"HLT_0627",NA,"HLGT_0461",NA,"PSYCHIATRIC DISORDERS",NA,"PSYCHIATRIC DISORDERS",NA,"MODERATE","N",NA,"POSSIBLE","NOT RECOVERED/NOT RESOLVED","N","N","N","N","N","N","N","2014-01-28","2014-01-15","2014-07-29",16,211,"01-706-1041_4"
"CDISCPILOT01","AE","01-706-1041",8,"E03","IRRITABILITY","IRRITABILITY",NA,"IRRITABILITY",NA,"HLT_0627",NA,"HLGT_0461",NA,"PSYCHIATRIC DISORDERS",NA,"PSYCHIATRIC DISORDERS",NA,"MODERATE","N",NA,"POSSIBLE","RECOVERED/RESOLVED","N","N","N","N","N","N","N","2014-07-29","2014-01-15","2014-07-29",16,211,"01-706-1041_8"
"CDISCPILOT01","AE","01-706-1041",6,"E08","PRURITUS","ITCHING",NA,"PRURITUS",NA,"HLT_0778",NA,"HLGT_0695",NA,"SKIN AND SUBCUTANEOUS TISSUE DISORDERS",NA,"SKIN AND SUBCUTANEOUS TISSUE DISORDERS",NA,"MILD","N",NA,"POSSIBLE","NOT RECOVERED/NOT RESOLVED","N","N","N","N","N","N","N","2014-03-04","2014-03-04","2014-07-29",64,211,"01-706-1041_6"
"CDISCPILOT01","AE","01-706-1041",9,"E08","PRURITUS","ITCHING",NA,"PRURITUS",NA,"HLT_0778",NA,"HLGT_0695",NA,"SKIN AND SUBCUTANEOUS TISSUE DISORDERS",NA,"SKIN AND SUBCUTANEOUS TISSUE DISORDERS",NA,"MILD","N",NA,"POSSIBLE","RECOVERED/RESOLVED","N","N","N","N","N","N","N","2014-07-29","2014-03-04","2014-07-29",64,211,"01-706-1041_9"
"CDISCPILOT01","AE","01-706-1049",1,"E01","SYNCOPE","FAINTING",NA,"SYNCOPE",NA,"HLT_0440",NA,"HLGT_0310",NA,"NERVOUS SYSTEM DISORDERS",NA,"NERVOUS SYSTEM DISORDERS",NA,"MODERATE","N",NA,"POSSIBLE","RECOVERED/RESOLVED","N","N","N","N","N","N","N","2013-06-11","2013-06-03","2013-06-03",21,21,"01-706-1049_1"
"CDISCPILOT01","AE","01-706-1049",2,"E02","SYNCOPE","SYNCOPAL ATTACK",NA,"SYNCOPE",NA,"HLT_0440",NA,"HLGT_0310",NA,"NERVOUS SYSTEM DISORDERS",NA,"NERVOUS SYSTEM DISORDERS",NA,"SEVERE","N",NA,"PROBABLE","RECOVERED/RESOLVED","N","N","N","N","Y","N","N","2013-06-25","2013-06-18","2013-06-18",36,36,"01-706-1049_2"
"CDISCPILOT01","AE","01-706-1384",1,"E03","ERYTHEMA","ERYTHEMA",NA,"ERYTHEMA",NA,"HLT_0284",NA,"HLGT_0192",NA,"SKIN AND SUBCUTANEOUS TISSUE DISORDERS",NA,"SKIN AND SUBCUTANEOUS TISSUE DISORDERS",NA,"MODERATE","N",NA,"NONE","NOT RECOVERED/NOT RESOLVED","N","N","N","N","N","N","N","2012-09-15","2012-09-15","2012-09-29",1,15,"01-706-1384_1"
"CDISCPILOT01","AE","01-706-1384",6,"E03","ERYTHEMA","ERYTHEMA",NA,"ERYTHEMA",NA,"HLT_0284",NA,"HLGT_0192",NA,"SKIN AND SUBCUTANEOUS TISSUE DISORDERS",NA,"SKIN AND SUBCUTANEOUS TISSUE DISORDERS",NA,"MODERATE","N",NA,"NONE","RECOVERED/RESOLVED","N","N","N","N","N","N","N","2013-06-22","2012-09-15","2012-09-29",1,15,"01-706-1384_6"
"CDISCPILOT01","AE","01-706-1384",4,"E01","ERYTHEMA","ERYTHEMA",NA,"ERYTHEMA",NA,"HLT_0284",NA,"HLGT_0192",NA,"SKIN AND SUBCUTANEOUS TISSUE DISORDERS",NA,"SKIN AND SUBCUTANEOUS TISSUE DISORDERS",NA,"MODERATE","N",NA,"PROBABLE","NOT RECOVERED/NOT RESOLVED","N","N","N","N","N","N","N","2012-09-29","2012-09-23","2012-09-29",9,15,"01-706-1384_4"
"CDISCPILOT01","AE","01-706-1384",9,"E01","ERYTHEMA","ERYTHEMA",NA,"ERYTHEMA",NA,"HLT_0284",NA,"HLGT_0192",NA,"SKIN AND SUBCUTANEOUS TISSUE DISORDERS",NA,"SKIN AND SUBCUTANEOUS TISSUE DISORDERS",NA,"MODERATE","N",NA,"PROBABLE","RECOVERED/RESOLVED","N","N","N","N","N","N","N","2013-06-22","2012-09-23","2012-09-29",9,15,"01-706-1384_9"
"CDISCPILOT01","AE","01-706-1384",3,"E05","EXCORIATION","ABRASIONS",NA,"EXCORIATION",NA,"HLT_0738",NA,"HLGT_0511",NA,"INJURY, POISONING AND PROCEDURAL COMPLICATIONS",NA,"INJURY, POISONING AND PROCEDURAL COMPLICATIONS",NA,"MODERATE","N",NA,"NONE","NOT RECOVERED/NOT RESOLVED","N","N","N","N","N","N","N","2012-09-15","2012-09-15","2012-09-29",1,15,"01-706-1384_3"
"CDISCPILOT01","AE","01-706-1384",8,"E05","EXCORIATION","ABRASIONS",NA,"EXCORIATION",NA,"HLT_0738",NA,"HLGT_0511",NA,"INJURY, POISONING AND PROCEDURAL COMPLICATIONS",NA,"INJURY, POISONING AND PROCEDURAL COMPLICATIONS",NA,"MODERATE","N",NA,"NONE","RECOVERED/RESOLVED","N","N","N","N","N","N","N","2013-06-22","2012-09-15","2012-09-29",1,15,"01-706-1384_8"
"CDISCPILOT01","AE","01-706-1384",2,"E04","PRURITUS","PRURITIS",NA,"PRURITUS",NA,"HLT_0778",NA,"HLGT_0695",NA,"SKIN AND SUBCUTANEOUS TISSUE DISORDERS",NA,"SKIN AND SUBCUTANEOUS TISSUE DISORDERS",NA,"MODERATE","N",NA,"NONE","NOT RECOVERED/NOT RESOLVED","N","N","N","N","N","N","N","2012-09-15","2012-09-15","2012-09-29",1,15,"01-706-1384_2"
"CDISCPILOT01","AE","01-706-1384",7,"E04","PRURITUS","PRURITIS",NA,"PRURITUS",NA,"HLT_0778",NA,"HLGT_0695",NA,"SKIN AND SUBCUTANEOUS TISSUE DISORDERS",NA,"SKIN AND SUBCUTANEOUS TISSUE DISORDERS",NA,"MODERATE","N",NA,"NONE","RECOVERED/RESOLVED","N","N","N","N","N","N","N","2013-06-22","2012-09-15","2012-09-29",1,15,"01-706-1384_7"
"CDISCPILOT01","AE","01-706-1384",5,"E06","PRURITUS","PRURITIS",NA,"PRURITUS",NA,"HLT_0778",NA,"HLGT_0695",NA,"SKIN AND SUBCUTANEOUS TISSUE DISORDERS",NA,"SKIN AND SUBCUTANEOUS TISSUE DISORDERS",NA,"MODERATE","N",NA,"PROBABLE","NOT RECOVERED/NOT RESOLVED","N","N","N","N","N","N","N","2012-09-29","2012-09-23","2012-09-29",9,15,"01-706-1384_5"
"CDISCPILOT01","AE","01-706-1384",10,"E06","PRURITUS","PRURITIS",NA,"PRURITUS",NA,"HLT_0778",NA,"HLGT_0695",NA,"SKIN AND SUBCUTANEOUS TISSUE DISORDERS",NA,"SKIN AND SUBCUTANEOUS TISSUE DISORDERS",NA,"MODERATE","N",NA,"PROBABLE","RECOVERED/RESOLVED","N","N","N","N","N","N","N","2013-06-22","2012-09-23","2012-09-29",9,15,"01-706-1384_10"
"CDISCPILOT01","AE","01-707-1206",2,"E03","BLOOD CREATINE PHOSPHOKINASE INCREASED","CPK INCREASE",NA,"BLOOD CREATINE PHOSPHOKINASE INCREASED",NA,"HLT_0404",NA,"HLGT_0008",NA,"INVESTIGATIONS",NA,"INVESTIGATIONS",NA,"MODERATE","N",NA,"POSSIBLE","NOT RECOVERED/NOT RESOLVED","N","N","N","N","N","N","N","2013-11-27","2013-11-26","2013-12-09",30,43,"01-707-1206_2"
"CDISCPILOT01","AE","01-707-1206",4,"E03","BLOOD CREATINE PHOSPHOKINASE INCREASED","CPK INCREASE",NA,"BLOOD CREATINE PHOSPHOKINASE INCREASED",NA,"HLT_0404",NA,"HLGT_0008",NA,"INVESTIGATIONS",NA,"INVESTIGATIONS",NA,"MODERATE","N",NA,"POSSIBLE","RECOVERED/RESOLVED","N","N","N","N","N","N","N","2013-12-23","2013-11-26","2013-12-09",30,43,"01-707-1206_4"
"CDISCPILOT01","AE","01-707-1206",7,"E06","CONJUNCTIVITIS","CONJUNCTIVITIS",NA,"CONJUNCTIVITIS",NA,"HLT_0584",NA,"HLGT_0335",NA,"EYE DISORDERS",NA,"EYE DISORDERS",NA,"MODERATE","N",NA,"REMOTE","NOT RECOVERED/NOT RESOLVED","N","N","N","N","N","N","N","2014-02-16","2014-02-08","2014-02-22",104,118,"01-707-1206_7"
"CDISCPILOT01","AE","01-707-1206",8,"E06","CONJUNCTIVITIS","CONJUNCTIVITIS",NA,"CONJUNCTIVITIS",NA,"HLT_0584",NA,"HLGT_0335",NA,"EYE DISORDERS",NA,"EYE DISORDERS",NA,"MODERATE","N",NA,"REMOTE","RECOVERED/RESOLVED","N","N","N","N","N","N","N","2014-03-16","2014-02-08","2014-02-22",104,118,"01-707-1206_8"
"CDISCPILOT01","AE","01-707-1206",3,"E05","POSTNASAL DRIP","POSTNASAL DRIP",NA,"POSTNASAL DRIP",NA,"HLT_0172",NA,"HLGT_0032",NA,"RESPIRATORY, THORACIC AND MEDIASTINAL DISORDERS",NA,"RESPIRATORY, THORACIC AND MEDIASTINAL DISORDERS",NA,"MILD","N",NA,"NONE","NOT RECOVERED/NOT RESOLVED","N","N","N","N","N","N","N","2013-12-09","2013-12-03","2013-12-10",37,44,"01-707-1206_3"
"CDISCPILOT01","AE","01-707-1206",5,"E05","POSTNASAL DRIP","POSTNASAL DRIP",NA,"POSTNASAL DRIP",NA,"HLT_0172",NA,"HLGT_0032",NA,"RESPIRATORY, THORACIC AND MEDIASTINAL DISORDERS",NA,"RESPIRATORY, THORACIC AND MEDIASTINAL DISORDERS",NA,"MILD","N",NA,"NONE","RECOVERED/RESOLVED","N","N","N","N","N","N","N","2013-12-23","2013-12-03","2013-12-10",37,44,"01-707-1206_5"
"CDISCPILOT01","AE","01-707-1206",1,"E04","SINUS ARRHYTHMIA","SINUS ARRHYTHMIA",NA,"SINUS ARRHYTHMIA",NA,"HLT_0094",NA,"HLGT_0630",NA,"CARDIAC DISORDERS",NA,"CARDIAC DISORDERS",NA,"MILD","N",NA,"POSSIBLE","NOT RECOVERED/NOT RESOLVED","N","N","N","N","N","N","N","2013-11-25","2013-11-25","2013-12-23",29,57,"01-707-1206_1"
"CDISCPILOT01","AE","01-707-1206",6,"E04","SINUS ARRHYTHMIA","SINUS ARRHYTHMIA",NA,"SINUS ARRHYTHMIA",NA,"HLT_0094",NA,"HLGT_0630",NA,"CARDIAC DISORDERS",NA,"CARDIAC DISORDERS",NA,"MILD","N",NA,"POSSIBLE","RECOVERED/RESOLVED","N","N","N","N","N","N","N","2014-01-19","2013-11-25","2013-12-23",29,57,"01-707-1206_6"
"CDISCPILOT01","AE","01-708-1019",5,"E06","DIZZINESS","DIZZINESS",NA,"DIZZINESS",NA,"HLT_0619",NA,"HLGT_0751",NA,"NERVOUS SYSTEM DISORDERS",NA,"NERVOUS SYSTEM DISORDERS",NA,"MILD","N",NA,"POSSIBLE","RECOVERED/RESOLVED","N","N","N","N","N","N","N","2014-01-23","2014-01-01","2014-01-01",13,13,"01-708-1019_5"
"CDISCPILOT01","AE","01-708-1019",1,"E02","HEADACHE","FRONTAL HEADACHE",NA,"HEADACHE",NA,"HLT_0064",NA,"HLGT_0344",NA,"NERVOUS SYSTEM DISORDERS",NA,"NERVOUS SYSTEM DISORDERS",NA,"SEVERE","N",NA,"POSSIBLE","RECOVERED/RESOLVED","N","N","N","N","N","N","N","2014-01-23","2013-12-31","2013-12-31",12,12,"01-708-1019_1"
"CDISCPILOT01","AE","01-708-1019",2,"E03","STUPOR","STUPOR",NA,"STUPOR",NA,"HLT_0595",NA,"HLGT_0513",NA,"NERVOUS SYSTEM DISORDERS",NA,"NERVOUS SYSTEM DISORDERS",NA,"SEVERE","N",NA,"POSSIBLE","RECOVERED/RESOLVED","N","N","N","N","N","N","N","2014-01-23","2014-01-01","2014-01-01",13,13,"01-708-1019_2"
"CDISCPILOT01","AE","01-708-1019",3,"E04","TRANSIENT ISCHAEMIC ATTACK","TRANSIENT ISCHEMIC ATTACKS",NA,"TRANSIENT ISCHAEMIC ATTACK",NA,"HLT_0041",NA,"HLGT_0433",NA,"NERVOUS SYSTEM DISORDERS",NA,"NERVOUS SYSTEM DISORDERS",NA,"SEVERE","N",NA,"POSSIBLE","RECOVERED/RESOLVED","N","N","N","N","N","N","N","2014-01-23","2014-01-01","2014-01-01",13,13,"01-708-1019_3"
"CDISCPILOT01","AE","01-708-1019",4,"E05","VISION BLURRED","BLURRED VISION",NA,"VISION BLURRED",NA,"HLT_0120",NA,"HLGT_0598",NA,"EYE DISORDERS",NA,"EYE DISORDERS",NA,"MILD","N",NA,"POSSIBLE","RECOVERED/RESOLVED","N","N","N","N","N","N","N","2014-01-23","2014-01-01","2014-01-01",13,13,"01-708-1019_4"
"CDISCPILOT01","AE","01-708-1032",1,"E05","APPLICATION SITE VESICLES","APPLICATION SITE BLISTER",NA,"APPLICATION SITE VESICLES",NA,"HLT_0180",NA,"HLGT_0576",NA,"GENERAL DISORDERS AND ADMINISTRATION SITE CONDITIONS",NA,"GENERAL DISORDERS AND ADMINISTRATION SITE CONDITIONS",NA,"MODERATE","N",NA,"PROBABLE","RECOVERED/RESOLVED","N","N","N","N","N","N","N","2013-03-09","2013-02-26","2013-03-09",18,29,"01-708-1032_1"
"CDISCPILOT01","AE","01-708-1084",1,"E02","DIZZINESS","DIZZINESS",NA,"DIZZINESS",NA,"HLT_0619",NA,"HLGT_0751",NA,"NERVOUS SYSTEM DISORDERS",NA,"NERVOUS SYSTEM DISORDERS",NA,"MILD","N",NA,"POSSIBLE","NOT RECOVERED/NOT RESOLVED","N","N","N","N","N","N","N","2013-05-23","2013-05-23","2013-05-23",15,15,"01-708-1084_1"
"CDISCPILOT01","AE","01-708-1084",2,"E02","DIZZINESS","DIZZINESS",NA,"DIZZINESS",NA,"HLT_0619",NA,"HLGT_0751",NA,"NERVOUS SYSTEM DISORDERS",NA,"NERVOUS SYSTEM DISORDERS",NA,"MILD","N",NA,"POSSIBLE","RECOVERED/RESOLVED","N","N","N","N","N","N","N","2013-06-09","2013-05-23","2013-05-23",15,15,"01-708-1084_2"
"CDISCPILOT01","AE","01-708-1084",3,"E07","MYOCARDIAL INFARCTION","MYOCARDIAL INFARCTION",NA,"MYOCARDIAL INFARCTION",NA,"HLT_0649",NA,"HLGT_0688",NA,"CARDIAC DISORDERS",NA,"CARDIAC DISORDERS",NA,"MILD","N",NA,"REMOTE","NOT RECOVERED/NOT RESOLVED","N","N","N","N","N","N","N","2013-06-09","2013-06-09","2013-06-09",32,32,"01-708-1084_3"
"CDISCPILOT01","AE","01-708-1084",4,"E07","MYOCARDIAL INFARCTION","MYOCARDIAL INFARCTION",NA,"MYOCARDIAL INFARCTION",NA,"HLT_0649",NA,"HLGT_0688",NA,"CARDIAC DISORDERS",NA,"CARDIAC DISORDERS",NA,"MILD","N",NA,"REMOTE","RECOVERED/RESOLVED","N","N","N","N","N","N","N","2013-06-11","2013-06-09","2013-06-09",32,32,"01-708-1084_4"
"CDISCPILOT01","AE","01-708-1084",5,"E06","SINUS BRADYCARDIA","SINUS BRADYCARDIA",NA,"SINUS BRADYCARDIA",NA,"HLT_0644",NA,"HLGT_0500",NA,"CARDIAC DISORDERS",NA,"CARDIAC DISORDERS",NA,"MILD","N",NA,"REMOTE","NOT RECOVERED/NOT RESOLVED","N","N","N","N","N","N","N","2013-06-23","2013-06-23","2013-06-23",46,46,"01-708-1084_5"
"CDISCPILOT01","AE","01-708-1084",6,"E06","SINUS BRADYCARDIA","SINUS BRADYCARDIA",NA,"SINUS BRADYCARDIA",NA,"HLT_0644",NA,"HLGT_0500",NA,"CARDIAC DISORDERS",NA,"CARDIAC DISORDERS",NA,"MILD","N",NA,"REMOTE","RECOVERED/RESOLVED","N","N","N","N","N","N","N","2013-07-07","2013-06-23","2013-06-23",46,46,"01-708-1084_6"
"CDISCPILOT01","AE","01-708-1087",3,"E03","DIZZINESS","DIZZINESS",NA,"DIZZINESS",NA,"HLT_0619",NA,"HLGT_0751",NA,"NERVOUS SYSTEM DISORDERS",NA,"NERVOUS SYSTEM DISORDERS",NA,"MILD","N",NA,"POSSIBLE","RECOVERED/RESOLVED","N","N","N","N","N","N","N","2013-02-16","2013-02-04","2013-02-08",106,110,"01-708-1087_3"
"CDISCPILOT01","AE","01-708-1087",4,"E02","HEADACHE","HEADACHE",NA,"HEADACHE",NA,"HLT_0064",NA,"HLGT_0344",NA,"NERVOUS SYSTEM DISORDERS",NA,"NERVOUS SYSTEM DISORDERS",NA,"MILD","N",NA,"NONE","NOT RECOVERED/NOT RESOLVED","N","N","N","N","N","N","N","2013-02-16","2013-02-16",NA,118,NA,"01-708-1087_4"
"CDISCPILOT01","AE","01-708-1087",1,"E05","HEART RATE IRREGULAR","HEARTBEATS IRREGULAR",NA,"HEART RATE IRREGULAR",NA,"HLT_0765",NA,"HLGT_0140",NA,"INVESTIGATIONS",NA,"INVESTIGATIONS",NA,"MILD","N",NA,"POSSIBLE","NOT RECOVERED/NOT RESOLVED","N","N","N","N","N","N","N","2013-01-19","2013-01-19","2013-01-19",90,90,"01-708-1087_1"
"CDISCPILOT01","AE","01-708-1087",2,"E05","HEART RATE IRREGULAR","HEARTBEATS IRREGULAR",NA,"HEART RATE IRREGULAR",NA,"HLT_0765",NA,"HLGT_0140",NA,"INVESTIGATIONS",NA,"INVESTIGATIONS",NA,"MILD","N",NA,"POSSIBLE","RECOVERED/RESOLVED","N","N","N","N","N","N","N","2013-02-16","2013-01-19","2013-01-19",90,90,"01-708-1087_2"
"CDISCPILOT01","AE","01-708-1087",5,"E06","HEART RATE IRREGULAR","HEARTBEATS IRREGULAR",NA,"HEART RATE IRREGULAR",NA,"HLT_0765",NA,"HLGT_0140",NA,"INVESTIGATIONS",NA,"INVESTIGATIONS",NA,"MILD","N",NA,"POSSIBLE","NOT RECOVERED/NOT RESOLVED","N","N","N","N","N","N","N","2013-03-16","2013-03-16","2013-03-16",146,146,"01-708-1087_5"
"CDISCPILOT01","AE","01-708-1087",6,"E06","HEART RATE IRREGULAR","HEARTBEATS IRREGULAR",NA,"HEART RATE IRREGULAR",NA,"HLT_0765",NA,"HLGT_0140",NA,"INVESTIGATIONS",NA,"INVESTIGATIONS",NA,"MILD","N",NA,"POSSIBLE","RECOVERED/RESOLVED","N","N","N","N","N","N","N","2013-04-10","2013-03-16","2013-03-16",146,146,"01-708-1087_6"
"CDISCPILOT01","AE","01-708-1158",1,"E05","AGITATION","AGITATION",NA,"AGITATION",NA,"HLT_0140",NA,"HLGT_0170",NA,"PSYCHIATRIC DISORDERS",NA,"PSYCHIATRIC DISORDERS",NA,"MILD","N",NA,"REMOTE","NOT RECOVERED/NOT RESOLVED","N","N","N","N","N","N","N","2014-02-26","2014-02-25",NA,18,NA,"01-708-1158_1"
"CDISCPILOT01","AE","01-708-1158",2,"E07","ERYTHEMA","ERYTHEMA",NA,"ERYTHEMA",NA,"HLT_0284",NA,"HLGT_0192",NA,"SKIN AND SUBCUTANEOUS TISSUE DISORDERS",NA,"SKIN AND SUBCUTANEOUS TISSUE DISORDERS",NA,"MILD","N",NA,"PROBABLE","RECOVERED/RESOLVED","N","N","N","N","N","N","N","2014-03-22","2014-03-22","2014-03-22",43,43,"01-708-1158_2"
"CDISCPILOT01","AE","01-708-1178",9,"E13","ALCOHOL USE","ALCOHOL USE",NA,"ALCOHOL USE",NA,"HLT_0138",NA,"HLGT_0182",NA,"SOCIAL CIRCUMSTANCES",NA,"SOCIAL CIRCUMSTANCES",NA,"MILD","N",NA,"NONE","RECOVERED/RESOLVED","N","N","N","N","N","N","N","2014-04-06","2014-03-24","2014-03-24",86,86,"01-708-1178_9"
"CDISCPILOT01","AE","01-708-1178",3,"E06","APPLICATION SITE PRURITUS","APPLICATION SITE ITCHING",NA,"APPLICATION SITE PRURITUS",NA,"HLT_0317",NA,"HLGT_0338",NA,"GENERAL DISORDERS AND ADMINISTRATION SITE CONDITIONS",NA,"GENERAL DISORDERS AND ADMINISTRATION SITE CONDITIONS",NA,"MILD","N",NA,"PROBABLE","NOT RECOVERED/NOT RESOLVED","N","N","N","N","N","N","N","2014-03-09","2014-03-09","2014-04-06",71,99,"01-708-1178_3"
"CDISCPILOT01","AE","01-708-1178",5,"E06","APPLICATION SITE PRURITUS","APPLICATION SITE ITCHING",NA,"APPLICATION SITE PRURITUS",NA,"HLT_0317",NA,"HLGT_0338",NA,"GENERAL DISORDERS AND ADMINISTRATION SITE CONDITIONS",NA,"GENERAL DISORDERS AND ADMINISTRATION SITE CONDITIONS",NA,"MILD","N",NA,"PROBABLE","RECOVERED/RESOLVED","N","N","N","N","N","N","N","2014-04-06","2014-03-09","2014-04-06",71,99,"01-708-1178_5"
"CDISCPILOT01","AE","01-708-1178",7,"E10","ATRIAL FIBRILLATION","ATRIAL FIBRILLATION",NA,"ATRIAL FIBRILLATION",NA,"HLT_0365",NA,"HLGT_0012",NA,"CARDIAC DISORDERS",NA,"CARDIAC DISORDERS",NA,"SEVERE","N",NA,"POSSIBLE","RECOVERED/RESOLVED","N","N","N","N","Y","N","N","2014-04-06","2014-03-24","2014-03-26",86,88,"01-708-1178_7"
"CDISCPILOT01","AE","01-708-1178",8,"E11","CYSTITIS","BLADDER INFECTION",NA,"CYSTITIS",NA,"HLT_0739",NA,"HLGT_0129",NA,"INFECTIONS AND INFESTATIONS",NA,"INFECTIONS AND INFESTATIONS",NA,"MILD","N",NA,"REMOTE","RECOVERED/RESOLVED","N","N","N","N","N","N","N","2014-04-06","2014-03-24","2014-03-28",86,90,"01-708-1178_8"
"CDISCPILOT01","AE","01-708-1178",6,"E09","DIZZINESS","LIGHT-HEADED",NA,"DIZZINESS",NA,"HLT_0619",NA,"HLGT_0751",NA,"NERVOUS SYSTEM DISORDERS",NA,"NERVOUS SYSTEM DISORDERS",NA,"SEVERE","N",NA,"POSSIBLE","RECOVERED/RESOLVED","N","N","N","N","Y","N","N","2014-04-06","2014-03-24","2014-03-26",86,88,"01-708-1178_6"
"CDISCPILOT01","AE","01-708-1178",1,"E03","FLANK PAIN","FLANK PAIN",NA,"FLANK PAIN",NA,"HLT_0484",NA,"HLGT_0543",NA,"MUSCULOSKELETAL AND CONNECTIVE TISSUE DISORDERS",NA,"MUSCULOSKELETAL AND CONNECTIVE TISSUE DISORDERS",NA,"MILD","N",NA,"NONE","NOT RECOVERED/NOT RESOLVED","N","N","N","N","N","N","N","2013-12-19","2013-12-19",NA,-10,NA,"01-708-1178_1"
"CDISCPILOT01","AE","01-708-1178",2,"E05","NASOPHARYNGITIS","COLD",NA,"NASOPHARYNGITIS",NA,"HLT_0036",NA,"HLGT_0709",NA,"INFECTIONS AND INFESTATIONS",NA,"INFECTIONS AND INFESTATIONS",NA,"MILD","N",NA,"NONE","RECOVERED/RESOLVED","N","N","N","N","N","N","N","2014-03-09","2014-03-01","2014-03-08",63,70,"01-708-1178_2"
"CDISCPILOT01","AE","01-708-1178",4,"E08","VENTRICULAR SEPTAL DEFECT","VENTRICULAR SEPTAL DEFECT",NA,"VENTRICULAR SEPTAL DEFECT",NA,"HLT_0589",NA,"HLGT_0747",NA,"CONGENITAL, FAMILIAL AND GENETIC DISORDERS",NA,"CONGENITAL, FAMILIAL AND GENETIC DISORDERS",NA,"MILD","N",NA,"NONE","NOT RECOVERED/NOT RESOLVED","N","N","N","N","N","N","N","2014-03-09","2014-03-09",NA,71,NA,"01-708-1178_4"
"CDISCPILOT01","AE","01-708-1213",1,"E03","ATRIAL FIBRILLATION","ATRIAL FIBRILLATION",NA,"ATRIAL FIBRILLATION",NA,"HLT_0365",NA,"HLGT_0012",NA,"CARDIAC DISORDERS",NA,"CARDIAC DISORDERS",NA,"MILD","N",NA,"POSSIBLE","NOT RECOVERED/NOT RESOLVED","N","N","N","N","N","N","N","2013-02-22","2013-02-22","2013-02-22",14,14,"01-708-1213_1"
"CDISCPILOT01","AE","01-708-1213",2,"E03","ATRIAL FIBRILLATION","ATRIAL FIBRILLATION",NA,"ATRIAL FIBRILLATION",NA,"HLT_0365",NA,"HLGT_0012",NA,"CARDIAC DISORDERS",NA,"CARDIAC DISORDERS",NA,"MILD","N",NA,"POSSIBLE","RECOVERED/RESOLVED","N","N","N","N","N","N","N","2013-02-26","2013-02-22","2013-02-22",14,14,"01-708-1213_2"
"CDISCPILOT01","AE","01-708-1216",2,"E05","APPLICATION SITE ERYTHEMA","APPLICATION SITE REDNESS",NA,"APPLICATION SITE ERYTHEMA",NA,"HLT_0617",NA,"HLGT_0152",NA,"GENERAL DISORDERS AND ADMINISTRATION SITE CONDITIONS",NA,"GENERAL DISORDERS AND ADMINISTRATION SITE CONDITIONS",NA,"MILD","N",NA,"PROBABLE","NOT RECOVERED/NOT RESOLVED","N","N","N","N","N","N","N","2012-11-08","2012-11-06","2012-12-13",14,51,"01-708-1216_2"
"CDISCPILOT01","AE","01-708-1216",4,"E05","APPLICATION SITE ERYTHEMA","APPLICATION SITE REDNESS",NA,"APPLICATION SITE ERYTHEMA",NA,"HLT_0617",NA,"HLGT_0152",NA,"GENERAL DISORDERS AND ADMINISTRATION SITE CONDITIONS",NA,"GENERAL DISORDERS AND ADMINISTRATION SITE CONDITIONS",NA,"MILD","N",NA,"PROBABLE","RECOVERED/RESOLVED","N","N","N","N","N","N","N","2013-01-09","2012-11-06","2012-12-13",14,51,"01-708-1216_4"
"CDISCPILOT01","AE","01-708-1216",1,"E01","APPLICATION SITE PRURITUS","APPLICATION SITE ITCHING",NA,"APPLICATION SITE PRURITUS",NA,"HLT_0317",NA,"HLGT_0338",NA,"GENERAL DISORDERS AND ADMINISTRATION SITE CONDITIONS",NA,"GENERAL DISORDERS AND ADMINISTRATION SITE CONDITIONS",NA,"MILD","N",NA,"PROBABLE","NOT RECOVERED/NOT RESOLVED","N","N","N","N","N","N","N","2012-11-08","2012-11-06",NA,14,NA,"01-708-1216_1"
"CDISCPILOT01","AE","01-708-1216",3,"E02","APPLICATION SITE SWELLING","APPLICATION SITE SWELLING",NA,"APPLICATION SITE SWELLING",NA,"HLT_0105",NA,"HLGT_0236",NA,"GENERAL DISORDERS AND ADMINISTRATION SITE CONDITIONS",NA,"GENERAL DISORDERS AND ADMINISTRATION SITE CONDITIONS",NA,"MILD","N",NA,"PROBABLE","NOT RECOVERED/NOT RESOLVED","N","N","N","N","N","N","N","2012-11-22","2012-11-22",NA,30,NA,"01-708-1216_3"
"CDISCPILOT01","AE","01-708-1253",2,"E04","CONJUNCTIVITIS","CONJUNCTIVITIS",NA,"CONJUNCTIVITIS",NA,"HLT_0584",NA,"HLGT_0335",NA,"EYE DISORDERS",NA,"EYE DISORDERS",NA,"MILD","N",NA,"NONE","NOT RECOVERED/NOT RESOLVED","N","N","N","N","N","N","N","2013-05-07","2013-05-06","2013-05-16",-1,10,"01-708-1253_2"
"CDISCPILOT01","AE","01-708-1253",5,"E04","CONJUNCTIVITIS","CONJUNCTIVITIS",NA,"CONJUNCTIVITIS",NA,"HLT_0584",NA,"HLGT_0335",NA,"EYE DISORDERS",NA,"EYE DISORDERS",NA,"MILD","N",NA,"NONE","RECOVERED/RESOLVED","N","N","N","N","N","N","N","2013-05-21","2013-05-06","2013-05-16",-1,10,"01-708-1253_5"
"CDISCPILOT01","AE","01-708-1253",1,"E03","COUGH","COUGH",NA,"COUGH",NA,"HLT_0701",NA,"HLGT_0280",NA,"RESPIRATORY, THORACIC AND MEDIASTINAL DISORDERS",NA,"RESPIRATORY, THORACIC AND MEDIASTINAL DISORDERS",NA,"MILD","N",NA,"NONE","NOT RECOVERED/NOT RESOLVED","N","N","N","N","N","N","N","2013-05-07","2013-05-06","2013-05-16",-1,10,"01-708-1253_1"
"CDISCPILOT01","AE","01-708-1253",4,"E03","COUGH","COUGH",NA,"COUGH",NA,"HLT_0701",NA,"HLGT_0280",NA,"RESPIRATORY, THORACIC AND MEDIASTINAL DISORDERS",NA,"RESPIRATORY, THORACIC AND MEDIASTINAL DISORDERS",NA,"MILD","N",NA,"NONE","RECOVERED/RESOLVED","N","N","N","N","N","N","N","2013-05-21","2013-05-06","2013-05-16",-1,10,"01-708-1253_4"
"CDISCPILOT01","AE","01-708-1253",7,"E05","DIZZINESS","DIZZINESS",NA,"DIZZINESS",NA,"HLT_0619",NA,"HLGT_0751",NA,"NERVOUS SYSTEM DISORDERS",NA,"NERVOUS SYSTEM DISORDERS",NA,"MILD","N",NA,"POSSIBLE","NOT RECOVERED/NOT RESOLVED","N","N","N","N","N","N","N","2013-06-07","2013-06-07","2013-06-07",32,32,"01-708-1253_7"
"CDISCPILOT01","AE","01-708-1253",8,"E05","DIZZINESS","DIZZINESS",NA,"DIZZINESS",NA,"HLT_0619",NA,"HLGT_0751",NA,"NERVOUS SYSTEM DISORDERS",NA,"NERVOUS SYSTEM DISORDERS",NA,"MILD","N",NA,"POSSIBLE","RECOVERED/RESOLVED","N","N","N","N","N","N","N","2013-06-09","2013-06-07","2013-06-07",32,32,"01-708-1253_8"
"CDISCPILOT01","AE","01-708-1253",3,"E02","HEART RATE INCREASED","HEART RATE INCREASED",NA,"HEART RATE INCREASED",NA,"HLT_0646",NA,"HLGT_0673",NA,"INVESTIGATIONS",NA,"INVESTIGATIONS",NA,"MILD","N",NA,"POSSIBLE","NOT RECOVERED/NOT RESOLVED","N","N","N","N","N","N","N","2013-05-07","2013-05-07","2013-05-10",1,4,"01-708-1253_3"
"CDISCPILOT01","AE","01-708-1253",6,"E02","HEART RATE INCREASED","HEART RATE INCREASED",NA,"HEART RATE INCREASED",NA,"HLT_0646",NA,"HLGT_0673",NA,"INVESTIGATIONS",NA,"INVESTIGATIONS",NA,"MILD","N",NA,"POSSIBLE","RECOVERED/RESOLVED","N","N","N","N","N","N","N","2013-05-21","2013-05-07","2013-05-10",1,4,"01-708-1253_6"
"CDISCPILOT01","AE","01-708-1272",4,"E11","APPLICATION SITE DERMATITIS","APPLICATION SITE RASH",NA,"APPLICATION SITE DERMATITIS",NA,"HLT_0343",NA,"HLGT_0241",NA,"GENERAL DISORDERS AND ADMINISTRATION SITE CONDITIONS",NA,"GENERAL DISORDERS AND ADMINISTRATION SITE CONDITIONS",NA,"MILD","N",NA,"PROBABLE","RECOVERED/RESOLVED","N","N","N","N","N","N","N","2013-03-07","2013-02-27","2013-02-27",22,22,"01-708-1272_4"
"CDISCPILOT01","AE","01-708-1272",5,"E08","COUGH","COUGH",NA,"COUGH",NA,"HLT_0701",NA,"HLGT_0280",NA,"RESPIRATORY, THORACIC AND MEDIASTINAL DISORDERS",NA,"RESPIRATORY, THORACIC AND MEDIASTINAL DISORDERS",NA,"MILD","N",NA,"NONE","NOT RECOVERED/NOT RESOLVED","N","N","N","N","N","N","N","2013-03-07","2013-03-01","2013-03-07",24,30,"01-708-1272_5"
"CDISCPILOT01","AE","01-708-1272",8,"E08","COUGH","COUGH",NA,"COUGH",NA,"HLT_0701",NA,"HLGT_0280",NA,"RESPIRATORY, THORACIC AND MEDIASTINAL DISORDERS",NA,"RESPIRATORY, THORACIC AND MEDIASTINAL DISORDERS",NA,"MILD","N",NA,"NONE","RECOVERED/RESOLVED","N","N","N","N","N","N","N","2013-03-09","2013-03-01","2013-03-07",24,30,"01-708-1272_8"
"CDISCPILOT01","AE","01-708-1272",1,"E12","DIARRHOEA","DIARRHEA",NA,"DIARRHOEA",NA,"HLT_0148",NA,"HLGT_0588",NA,"GASTROINTESTINAL DISORDERS",NA,"GASTROINTESTINAL DISORDERS",NA,"MILD","N",NA,"NONE","RECOVERED/RESOLVED","N","N","N","N","N","N","N","2013-02-21","2013-02-11","2013-02-11",6,6,"01-708-1272_1"
"CDISCPILOT01","AE","01-708-1272",7,"E10","HEADACHE","HEADACHE",NA,"HEADACHE",NA,"HLT_0064",NA,"HLGT_0344",NA,"NERVOUS SYSTEM DISORDERS",NA,"NERVOUS SYSTEM DISORDERS",NA,"MILD","N",NA,"NONE","NOT RECOVERED/NOT RESOLVED","N","N","N","N","N","N","N","2013-03-07","2013-03-07","2013-03-07",30,30,"01-708-1272_7"
"CDISCPILOT01","AE","01-708-1272",10,"E10","HEADACHE","HEADACHE",NA,"HEADACHE",NA,"HLT_0064",NA,"HLGT_0344",NA,"NERVOUS SYSTEM DISORDERS",NA,"NERVOUS SYSTEM DISORDERS",NA,"MILD","N",NA,"NONE","RECOVERED/RESOLVED","N","N","N","N","N","N","N","2013-03-09","2013-03-07","2013-03-07",30,30,"01-708-1272_10"
"CDISCPILOT01","AE","01-708-1272",11,"E14","HOT FLUSH","HOT FLASHES",NA,"HOT FLUSH",NA,"HLT_0737",NA,"HLGT_0773",NA,"VASCULAR DISORDERS",NA,"VASCULAR DISORDERS",NA,"MILD","N",NA,"NONE","RECOVERED/RESOLVED","N","N","N","N","N","N","N","2013-03-20","2013-03-19","2013-03-19",42,42,"01-708-1272_11"
"CDISCPILOT01","AE","01-708-1272",2,"E13","MUSCLE SPASMS","LEG CRAMPS",NA,"MUSCLE SPASMS",NA,"HLT_0078",NA,"HLGT_0750",NA,"MUSCULOSKELETAL AND CONNECTIVE TISSUE DISORDERS",NA,"MUSCULOSKELETAL AND CONNECTIVE TISSUE DISORDERS",NA,"SEVERE","N",NA,"NONE","RECOVERED/RESOLVED","N","N","N","N","N","N","N","2013-02-21","2013-02-18","2013-02-18",13,13,"01-708-1272_2"
"CDISCPILOT01","AE","01-708-1272",6,"E09","NASOPHARYNGITIS","COLD",NA,"NASOPHARYNGITIS",NA,"HLT_0036",NA,"HLGT_0709",NA,"INFECTIONS AND INFESTATIONS",NA,"INFECTIONS AND INFESTATIONS",NA,"MILD","N",NA,"NONE","NOT RECOVERED/NOT RESOLVED","N","N","N","N","N","N","N","2013-03-07","2013-03-01","2013-03-07",24,30,"01-708-1272_6"
"CDISCPILOT01","AE","01-708-1272",9,"E09","NASOPHARYNGITIS","COLD",NA,"NASOPHARYNGITIS",NA,"HLT_0036",NA,"HLGT_0709",NA,"INFECTIONS AND INFESTATIONS",NA,"INFECTIONS AND INFESTATIONS",NA,"MILD","N",NA,"NONE","RECOVERED/RESOLVED","N","N","N","N","N","N","N","2013-03-09","2013-03-01","2013-03-07",24,30,"01-708-1272_9"
"CDISCPILOT01","AE","01-708-1272",3,"E05","VENTRICULAR EXTRASYSTOLES","VENTRICULAR BIGEMINY",NA,"VENTRICULAR EXTRASYSTOLES",NA,"HLT_0050",NA,"HLGT_0594",NA,"CARDIAC DISORDERS",NA,"CARDIAC DISORDERS",NA,"MILD","N",NA,"REMOTE","NOT RECOVERED/NOT RESOLVED","N","N","N","N","N","N","N","2013-02-21","2013-02-21","2013-03-20",16,43,"01-708-1272_3"
"CDISCPILOT01","AE","01-708-1272",12,"E05","VENTRICULAR EXTRASYSTOLES","VENTRICULAR BIGEMINY",NA,"VENTRICULAR EXTRASYSTOLES",NA,"HLT_0050",NA,"HLGT_0594",NA,"CARDIAC DISORDERS",NA,"CARDIAC DISORDERS",NA,"MILD","N",NA,"REMOTE","RECOVERED/RESOLVED","N","N","N","N","N","N","N","2013-04-04","2013-02-21","2013-03-20",16,43,"01-708-1272_12"
"CDISCPILOT01","AE","01-708-1286",3,"E08","ABDOMINAL PAIN","ABDOMINAL PAIN",NA,"ABDOMINAL PAIN",NA,"HLT_0217",NA,"HLGT_0419",NA,"GASTROINTESTINAL DISORDERS",NA,"GASTROINTESTINAL DISORDERS",NA,"MILD","N",NA,"REMOTE","RECOVERED/RESOLVED","N","N","N","N","N","N","N","2014-02-23","2014-02-18","2014-02-18",162,162,"01-708-1286_3"
"CDISCPILOT01","AE","01-708-1286",1,"E06","APPLICATION SITE PRURITUS","APPLICATION SITE ITCHING",NA,"APPLICATION SITE PRURITUS",NA,"HLT_0317",NA,"HLGT_0338",NA,"GENERAL DISORDERS AND ADMINISTRATION SITE CONDITIONS",NA,"GENERAL DISORDERS AND ADMINISTRATION SITE CONDITIONS",NA,"MILD","N",NA,"PROBABLE","NOT RECOVERED/NOT RESOLVED","N","N","N","N","N","N","N","2013-09-23","2013-09-12",NA,3,NA,"01-708-1286_1"
"CDISCPILOT01","AE","01-708-1286",4,"E09","CONSTIPATION","CONSTIPATION",NA,"CONSTIPATION",NA,"HLT_0402",NA,"HLGT_0635",NA,"GASTROINTESTINAL DISORDERS",NA,"GASTROINTESTINAL DISORDERS",NA,"MILD","N",NA,"REMOTE","RECOVERED/RESOLVED","N","N","N","N","N","N","N","2014-02-23","2014-02-18","2014-02-18",162,162,"01-708-1286_4"
"CDISCPILOT01","AE","01-708-1286",2,"E04","MYOCARDIAL INFARCTION","INFERIOR MYOCARDIAL INFARCTION",NA,"MYOCARDIAL INFARCTION",NA,"HLT_0649",NA,"HLGT_0688",NA,"CARDIAC DISORDERS",NA,"CARDIAC DISORDERS",NA,"MILD","N",NA,"REMOTE","NOT RECOVERED/NOT RESOLVED","N","N","N","N","N","N","N","2013-09-23","2013-09-23",NA,14,NA,"01-708-1286_2"
"CDISCPILOT01","AE","01-708-1296",3,"E04","APPLICATION SITE PRURITUS","APPLICATION SITE ITCHING",NA,"APPLICATION SITE PRURITUS",NA,"HLT_0317",NA,"HLGT_0338",NA,"GENERAL DISORDERS AND ADMINISTRATION SITE CONDITIONS",NA,"GENERAL DISORDERS AND ADMINISTRATION SITE CONDITIONS",NA,"MILD","N",NA,"PROBABLE","NOT RECOVERED/NOT RESOLVED","N","N","N","N","N","N","N","2013-09-04","2013-09-04","2013-09-18",83,97,"01-708-1296_3"
"CDISCPILOT01","AE","01-708-1296",4,"E04","APPLICATION SITE PRURITUS","APPLICATION SITE ITCHING",NA,"APPLICATION SITE PRURITUS",NA,"HLT_0317",NA,"HLGT_0338",NA,"GENERAL DISORDERS AND ADMINISTRATION SITE CONDITIONS",NA,"GENERAL DISORDERS AND ADMINISTRATION SITE CONDITIONS",NA,"MILD","N",NA,"PROBABLE","RECOVERED/RESOLVED","N","N","N","N","N","N","N","2013-10-02","2013-09-04","2013-09-18",83,97,"01-708-1296_4"
"CDISCPILOT01","AE","01-708-1296",5,"E05","APPLICATION SITE VESICLES","APPLICATION SITE BLISTER",NA,"APPLICATION SITE VESICLES",NA,"HLT_0180",NA,"HLGT_0576",NA,"GENERAL DISORDERS AND ADMINISTRATION SITE CONDITIONS",NA,"GENERAL DISORDERS AND ADMINISTRATION SITE CONDITIONS",NA,"MILD","N",NA,"PROBABLE","NOT RECOVERED/NOT RESOLVED","N","N","N","N","N","N","N","2013-10-30","2013-10-04","2013-10-30",113,139,"01-708-1296_5"
"CDISCPILOT01","AE","01-708-1296",6,"E05","APPLICATION SITE VESICLES","APPLICATION SITE BLISTER",NA,"APPLICATION SITE VESICLES",NA,"HLT_0180",NA,"HLGT_0576",NA,"GENERAL DISORDERS AND ADMINISTRATION SITE CONDITIONS",NA,"GENERAL DISORDERS AND ADMINISTRATION SITE CONDITIONS",NA,"MILD","N",NA,"PROBABLE","RECOVERED/RESOLVED","N","N","N","N","N","N","N","2013-11-27","2013-10-04","2013-10-30",113,139,"01-708-1296_6"
"CDISCPILOT01","AE","01-708-1296",1,"E03","ATRIAL HYPERTROPHY","LEFT ATRIAL HYPERTROPHY",NA,"ATRIAL HYPERTROPHY",NA,"HLT_0271",NA,"HLGT_0067",NA,"CARDIAC DISORDERS",NA,"CARDIAC DISORDERS",NA,"MILD","N",NA,"REMOTE","NOT RECOVERED/NOT RESOLVED","N","N","N","N","N","N","N","2013-06-27","2013-06-27","2013-06-27",14,14,"01-708-1296_1"
"CDISCPILOT01","AE","01-708-1296",2,"E03","ATRIAL HYPERTROPHY","LEFT ATRIAL HYPERTROPHY",NA,"ATRIAL HYPERTROPHY",NA,"HLT_0271",NA,"HLGT_0067",NA,"CARDIAC DISORDERS",NA,"CARDIAC DISORDERS",NA,"MILD","N",NA,"REMOTE","RECOVERED/RESOLVED","N","N","N","N","N","N","N","2013-07-10","2013-06-27","2013-06-27",14,14,"01-708-1296_2"
"CDISCPILOT01","AE","01-708-1296",7,"E07","PAIN IN EXTREMITY","PAIN IN THIGH",NA,"PAIN IN EXTREMITY",NA,"HLT_0213",NA,"HLGT_0764",NA,"MUSCULOSKELETAL AND CONNECTIVE TISSUE DISORDERS",NA,"MUSCULOSKELETAL AND CONNECTIVE TISSUE DISORDERS",NA,"MILD","N",NA,"REMOTE","RECOVERED/RESOLVED","N","N","N","N","N","N","N","2013-12-12","2013-12-07","2013-12-07",177,177,"01-708-1296_7"
"CDISCPILOT01","AE","01-708-1297",1,"E02","APPLICATION SITE PRURITUS","APPLICATION SITE ITCHING",NA,"APPLICATION SITE PRURITUS",NA,"HLT_0317",NA,"HLGT_0338",NA,"GENERAL DISORDERS AND ADMINISTRATION SITE CONDITIONS",NA,"GENERAL DISORDERS AND ADMINISTRATION SITE CONDITIONS",NA,"MILD","N",NA,"PROBABLE","NOT RECOVERED/NOT RESOLVED","N","N","N","N","N","N","N","2013-04-16","2013-04-02",NA,68,NA,"01-708-1297_1"
"CDISCPILOT01","AE","01-708-1297",2,"E03","APPLICATION SITE SWELLING","APPLICATION SITE SWELLING",NA,"APPLICATION SITE SWELLING",NA,"HLT_0105",NA,"HLGT_0236",NA,"GENERAL DISORDERS AND ADMINISTRATION SITE CONDITIONS",NA,"GENERAL DISORDERS AND ADMINISTRATION SITE CONDITIONS",NA,"MILD","N",NA,"PROBABLE","NOT RECOVERED/NOT RESOLVED","N","N","N","N","N","N","N","2013-04-16","2013-04-02",NA,68,NA,"01-708-1297_2"
"CDISCPILOT01","AE","01-708-1297",3,"E04","SINUS BRADYCARDIA","SINUS BRADYCARDIA",NA,"SINUS BRADYCARDIA",NA,"HLT_0644",NA,"HLGT_0500",NA,"CARDIAC DISORDERS",NA,"CARDIAC DISORDERS",NA,"MILD","N",NA,"REMOTE","NOT RECOVERED/NOT RESOLVED","N","N","N","N","N","N","N","2013-05-08","2013-05-08",NA,104,NA,"01-708-1297_3"
"CDISCPILOT01","AE","01-708-1316",2,"E04","APPLICATION SITE ERYTHEMA","APPLICATION SITE REDNESS",NA,"APPLICATION SITE ERYTHEMA",NA,"HLT_0617",NA,"HLGT_0152",NA,"GENERAL DISORDERS AND ADMINISTRATION SITE CONDITIONS",NA,"GENERAL DISORDERS AND ADMINISTRATION SITE CONDITIONS",NA,"MILD","N",NA,"PROBABLE","NOT RECOVERED/NOT RESOLVED","N","N","N","N","N","N","N","2014-02-15","2014-02-15",NA,177,NA,"01-708-1316_2"
"CDISCPILOT01","AE","01-708-1316",1,"E05","HEADACHE","HEADACHE",NA,"HEADACHE",NA,"HLT_0064",NA,"HLGT_0344",NA,"NERVOUS SYSTEM DISORDERS",NA,"NERVOUS SYSTEM DISORDERS",NA,"MILD","N",NA,"POSSIBLE","NOT RECOVERED/NOT RESOLVED","N","N","N","N","N","N","N","2014-02-15","2014-01-29",NA,160,NA,"01-708-1316_1"
"CDISCPILOT01","AE","01-708-1336",5,"E11","APPLICATION SITE ERYTHEMA","APPLICATION SITE REDNESS",NA,"APPLICATION SITE ERYTHEMA",NA,"HLT_0617",NA,"HLGT_0152",NA,"GENERAL DISORDERS AND ADMINISTRATION SITE CONDITIONS",NA,"GENERAL DISORDERS AND ADMINISTRATION SITE CONDITIONS",NA,"MILD","N",NA,"PROBABLE","NOT RECOVERED/NOT RESOLVED","N","N","N","N","N","N","N","2013-04-23","2013-04-10","2013-06-05",125,181,"01-708-1336_5"
"CDISCPILOT01","AE","01-708-1336",7,"E11","APPLICATION SITE ERYTHEMA","APPLICATION SITE REDNESS",NA,"APPLICATION SITE ERYTHEMA",NA,"HLT_0617",NA,"HLGT_0152",NA,"GENERAL DISORDERS AND ADMINISTRATION SITE CONDITIONS",NA,"GENERAL DISORDERS AND ADMINISTRATION SITE CONDITIONS",NA,"MILD","N",NA,"PROBABLE","RECOVERED/RESOLVED","N","N","N","N","N","N","N","2013-07-05","2013-04-10","2013-06-05",125,181,"01-708-1336_7"
"CDISCPILOT01","AE","01-708-1336",2,"E08","APPLICATION SITE PRURITUS","APPLICATION SITE ITCHING",NA,"APPLICATION SITE PRURITUS",NA,"HLT_0317",NA,"HLGT_0338",NA,"GENERAL DISORDERS AND ADMINISTRATION SITE CONDITIONS",NA,"GENERAL DISORDERS AND ADMINISTRATION SITE CONDITIONS",NA,"MILD","N",NA,"PROBABLE","RECOVERED/RESOLVED","N","N","N","N","N","N","N","2013-01-15","2013-01-12","2013-01-12",37,37,"01-708-1336_2"
"CDISCPILOT01","AE","01-708-1336",4,"E10","APPLICATION SITE PRURITUS","APPLICATION SITE ITCHING",NA,"APPLICATION SITE PRURITUS",NA,"HLT_0317",NA,"HLGT_0338",NA,"GENERAL DISORDERS AND ADMINISTRATION SITE CONDITIONS",NA,"GENERAL DISORDERS AND ADMINISTRATION SITE CONDITIONS",NA,"MILD","N",NA,"PROBABLE","NOT RECOVERED/NOT RESOLVED","N","N","N","N","N","N","N","2013-04-23","2013-04-10","2013-06-05",125,181,"01-708-1336_4"
"CDISCPILOT01","AE","01-708-1336",6,"E10","APPLICATION SITE PRURITUS","APPLICATION SITE ITCHING",NA,"APPLICATION SITE PRURITUS",NA,"HLT_0317",NA,"HLGT_0338",NA,"GENERAL DISORDERS AND ADMINISTRATION SITE CONDITIONS",NA,"GENERAL DISORDERS AND ADMINISTRATION SITE CONDITIONS",NA,"MILD","N",NA,"PROBABLE","RECOVERED/RESOLVED","N","N","N","N","N","N","N","2013-07-05","2013-04-10","2013-06-05",125,181,"01-708-1336_6"
"CDISCPILOT01","AE","01-708-1336",1,"E06","DIZZINESS","LIGHTHEADEDNESS",NA,"DIZZINESS",NA,"HLT_0619",NA,"HLGT_0751",NA,"NERVOUS SYSTEM DISORDERS",NA,"NERVOUS SYSTEM DISORDERS",NA,"MILD","N",NA,"POSSIBLE","RECOVERED/RESOLVED","N","N","N","N","N","N","N","2012-12-21","2012-12-18","2012-12-18",12,12,"01-708-1336_1"
"CDISCPILOT01","AE","01-708-1336",3,"E09","DIZZINESS","LIGHT HEADEDNESS",NA,"DIZZINESS",NA,"HLT_0619",NA,"HLGT_0751",NA,"NERVOUS SYSTEM DISORDERS",NA,"NERVOUS SYSTEM DISORDERS",NA,"MILD","N",NA,"POSSIBLE","RECOVERED/RESOLVED","N","N","N","N","N","N","N","2013-02-27","2013-02-02","2013-02-02",58,58,"01-708-1336_3"
"CDISCPILOT01","AE","01-708-1347",3,"E04","APPLICATION SITE ERYTHEMA","APPLICATION SITE REDNESS",NA,"APPLICATION SITE ERYTHEMA",NA,"HLT_0617",NA,"HLGT_0152",NA,"GENERAL DISORDERS AND ADMINISTRATION SITE CONDITIONS",NA,"GENERAL DISORDERS AND ADMINISTRATION SITE CONDITIONS",NA,"MODERATE","N",NA,"PROBABLE","NOT RECOVERED/NOT RESOLVED","N","N","N","N","N","N","N","2013-06-13","2013-06-13","2013-06-25",55,67,"01-708-1347_3"
"CDISCPILOT01","AE","01-708-1347",7,"E04","APPLICATION SITE ERYTHEMA","APPLICATION SITE REDNESS",NA,"APPLICATION SITE ERYTHEMA",NA,"HLT_0617",NA,"HLGT_0152",NA,"GENERAL DISORDERS AND ADMINISTRATION SITE CONDITIONS",NA,"GENERAL DISORDERS AND ADMINISTRATION SITE CONDITIONS",NA,"MODERATE","N",NA,"PROBABLE","RECOVERED/RESOLVED","N","N","N","N","N","N","N","2013-08-02","2013-06-13","2013-06-25",55,67,"01-708-1347_7"
"CDISCPILOT01","AE","01-708-1347",4,"E05","APPLICATION SITE SWELLING","APPLICATION SITE SWELLING",NA,"APPLICATION SITE SWELLING",NA,"HLT_0105",NA,"HLGT_0236",NA,"GENERAL DISORDERS AND ADMINISTRATION SITE CONDITIONS",NA,"GENERAL DISORDERS AND ADMINISTRATION SITE CONDITIONS",NA,"MODERATE","N",NA,"PROBABLE","NOT RECOVERED/NOT RESOLVED","N","N","N","N","N","N","N","2013-06-13","2013-06-13","2013-06-25",55,67,"01-708-1347_4"
"CDISCPILOT01","AE","01-708-1347",8,"E05","APPLICATION SITE SWELLING","APPLICATION SITE SWELLING",NA,"APPLICATION SITE SWELLING",NA,"HLT_0105",NA,"HLGT_0236",NA,"GENERAL DISORDERS AND ADMINISTRATION SITE CONDITIONS",NA,"GENERAL DISORDERS AND ADMINISTRATION SITE CONDITIONS",NA,"MODERATE","N",NA,"PROBABLE","RECOVERED/RESOLVED","N","N","N","N","N","N","N","2013-08-02","2013-06-13","2013-06-25",55,67,"01-708-1347_8"
"CDISCPILOT01","AE","01-708-1347",2,"E03","ERYTHEMA","ERYTHEMA",NA,"ERYTHEMA",NA,"HLT_0284",NA,"HLGT_0192",NA,"SKIN AND SUBCUTANEOUS TISSUE DISORDERS",NA,"SKIN AND SUBCUTANEOUS TISSUE DISORDERS",NA,"MODERATE","N",NA,"PROBABLE","NOT RECOVERED/NOT RESOLVED","N","N","N","N","N","N","N","2013-06-13","2013-06-13","2013-06-25",55,67,"01-708-1347_2"
"CDISCPILOT01","AE","01-708-1347",6,"E03","ERYTHEMA","ERYTHEMA",NA,"ERYTHEMA",NA,"HLT_0284",NA,"HLGT_0192",NA,"SKIN AND SUBCUTANEOUS TISSUE DISORDERS",NA,"SKIN AND SUBCUTANEOUS TISSUE DISORDERS",NA,"MODERATE","N",NA,"PROBABLE","RECOVERED/RESOLVED","N","N","N","N","N","N","N","2013-08-02","2013-06-13","2013-06-25",55,67,"01-708-1347_6"
"CDISCPILOT01","AE","01-708-1347",1,"E02","PRURITUS","ITCHING",NA,"PRURITUS",NA,"HLT_0778",NA,"HLGT_0695",NA,"SKIN AND SUBCUTANEOUS TISSUE DISORDERS",NA,"SKIN AND SUBCUTANEOUS TISSUE DISORDERS",NA,"MILD","N",NA,"PROBABLE","NOT RECOVERED/NOT RESOLVED","N","N","N","N","N","N","N","2013-06-13","2013-06-13","2013-06-25",55,67,"01-708-1347_1"
"CDISCPILOT01","AE","01-708-1347",5,"E02","PRURITUS","ITCHING",NA,"PRURITUS",NA,"HLT_0778",NA,"HLGT_0695",NA,"SKIN AND SUBCUTANEOUS TISSUE DISORDERS",NA,"SKIN AND SUBCUTANEOUS TISSUE DISORDERS",NA,"MILD","N",NA,"PROBABLE","RECOVERED/RESOLVED","N","N","N","N","N","N","N","2013-08-02","2013-06-13","2013-06-25",55,67,"01-708-1347_5"
"CDISCPILOT01","AE","01-708-1348",3,"E05","APPLICATION SITE PRURITUS","APPLICATION SITE ITCHING",NA,"APPLICATION SITE PRURITUS",NA,"HLT_0317",NA,"HLGT_0338",NA,"GENERAL DISORDERS AND ADMINISTRATION SITE CONDITIONS",NA,"GENERAL DISORDERS AND ADMINISTRATION SITE CONDITIONS",NA,"MILD","N",NA,"PROBABLE","NOT RECOVERED/NOT RESOLVED","N","N","N","N","N","N","N","2013-12-01","2013-12-01",NA,119,NA,"01-708-1348_3"
"CDISCPILOT01","AE","01-708-1348",1,"E04","MYOCARDIAL INFARCTION","ANTEROSEPTAL INFARCTION",NA,"MYOCARDIAL INFARCTION",NA,"HLT_0649",NA,"HLGT_0688",NA,"CARDIAC DISORDERS",NA,"CARDIAC DISORDERS",NA,"MILD","N",NA,"POSSIBLE","NOT RECOVERED/NOT RESOLVED","N","N","N","N","N","N","N","2013-08-19","2013-08-18","2013-08-31",14,27,"01-708-1348_1"
"CDISCPILOT01","AE","01-708-1348",2,"E04","MYOCARDIAL INFARCTION","ANTEROSEPTAL INFARCTION",NA,"MYOCARDIAL INFARCTION",NA,"HLT_0649",NA,"HLGT_0688",NA,"CARDIAC DISORDERS",NA,"CARDIAC DISORDERS",NA,"MILD","N",NA,"POSSIBLE","RECOVERED/RESOLVED","N","N","N","N","N","N","N","2013-09-02","2013-08-18","2013-08-31",14,27,"01-708-1348_2"
"CDISCPILOT01","AE","01-708-1353",1,"E09","DIZZINESS","DIZZINESS",NA,"DIZZINESS",NA,"HLT_0619",NA,"HLGT_0751",NA,"NERVOUS SYSTEM DISORDERS",NA,"NERVOUS SYSTEM DISORDERS",NA,"MILD","N",NA,"REMOTE","NOT RECOVERED/NOT RESOLVED","N","N","N","N","N","N","N","2013-08-18","2013-08-18","2013-09-10",46,69,"01-708-1353_1"
"CDISCPILOT01","AE","01-708-1353",2,"E09","DIZZINESS","DIZZINESS",NA,"DIZZINESS",NA,"HLT_0619",NA,"HLGT_0751",NA,"NERVOUS SYSTEM DISORDERS",NA,"NERVOUS SYSTEM DISORDERS",NA,"MILD","N",NA,"REMOTE","RECOVERED/RESOLVED","N","N","N","N","N","N","N","2013-09-10","2013-08-18","2013-09-10",46,69,"01-708-1353_2"
"CDISCPILOT01","AE","01-708-1353",3,"E10","HYPOTENSION","LOW BLOOD PRESSURE",NA,"HYPOTENSION",NA,"HLT_0761",NA,"HLGT_0412",NA,"VASCULAR DISORDERS",NA,"VASCULAR DISORDERS",NA,"MILD","N",NA,"POSSIBLE","RECOVERED/RESOLVED","N","N","N","N","N","N","N","2013-09-10","2013-08-28","2013-09-10",56,69,"01-708-1353_3"
"CDISCPILOT01","AE","01-708-1372",1,"E03","ATRIOVENTRICULAR BLOCK SECOND DEGREE","AV BLOCK SECOND DEGREE",NA,"ATRIOVENTRICULAR BLOCK SECOND DEGREE",NA,"HLT_0415",NA,"HLGT_0086",NA,"CARDIAC DISORDERS",NA,"CARDIAC DISORDERS",NA,"MODERATE","N",NA,"NONE","NOT RECOVERED/NOT RESOLVED","N","N","N","N","N","N","N","2013-04-10","2013-04-10",NA,-2,NA,"01-708-1372_1"
"CDISCPILOT01","AE","01-708-1406",1,"E03","OEDEMA PERIPHERAL","SWELLING OF LEGS",NA,"OEDEMA PERIPHERAL",NA,"HLT_0661",NA,"HLGT_0137",NA,"GENERAL DISORDERS AND ADMINISTRATION SITE CONDITIONS",NA,"GENERAL DISORDERS AND ADMINISTRATION SITE CONDITIONS",NA,"MILD","N",NA,"NONE","NOT RECOVERED/NOT RESOLVED","N","N","N","N","N","N","N","2014-06-16","2014-06-16",NA,173,NA,"01-708-1406_1"
"CDISCPILOT01","AE","01-708-1406",2,"E04","OEDEMA PERIPHERAL","SWELLING OF LEGS",NA,"OEDEMA PERIPHERAL",NA,"HLT_0661",NA,"HLGT_0137",NA,"GENERAL DISORDERS AND ADMINISTRATION SITE CONDITIONS",NA,"GENERAL DISORDERS AND ADMINISTRATION SITE CONDITIONS",NA,"MILD","N",NA,"NONE","NOT RECOVERED/NOT RESOLVED","N","N","N","N","N","N","N","2014-06-16","2014-06-16",NA,173,NA,"01-708-1406_2"
"CDISCPILOT01","AE","01-708-1428",3,"E02","APPLICATION SITE ERYTHEMA","APPLICATION SITE REDNESS",NA,"APPLICATION SITE ERYTHEMA",NA,"HLT_0617",NA,"HLGT_0152",NA,"GENERAL DISORDERS AND ADMINISTRATION SITE CONDITIONS",NA,"GENERAL DISORDERS AND ADMINISTRATION SITE CONDITIONS",NA,"MODERATE","N",NA,"PROBABLE","NOT RECOVERED/NOT RESOLVED","N","N","N","N","N","N","N","2013-12-10","2013-12-10","2013-12-21",32,43,"01-708-1428_3"
"CDISCPILOT01","AE","01-708-1428",6,"E02","APPLICATION SITE ERYTHEMA","APPLICATION SITE REDNESS",NA,"APPLICATION SITE ERYTHEMA",NA,"HLT_0617",NA,"HLGT_0152",NA,"GENERAL DISORDERS AND ADMINISTRATION SITE CONDITIONS",NA,"GENERAL DISORDERS AND ADMINISTRATION SITE CONDITIONS",NA,"SEVERE","N",NA,"PROBABLE","RECOVERED/RESOLVED","N","N","N","N","N","N","N","2013-12-26","2013-12-10","2013-12-21",32,43,"01-708-1428_6"
"CDISCPILOT01","AE","01-708-1428",2,"E01","APPLICATION SITE PRURITUS","APPLICATION SITE ITCHING",NA,"APPLICATION SITE PRURITUS",NA,"HLT_0317",NA,"HLGT_0338",NA,"GENERAL DISORDERS AND ADMINISTRATION SITE CONDITIONS",NA,"GENERAL DISORDERS AND ADMINISTRATION SITE CONDITIONS",NA,"MODERATE","N",NA,"PROBABLE","NOT RECOVERED/NOT RESOLVED","N","N","N","N","N","N","N","2013-12-10","2013-12-10","2013-12-21",32,43,"01-708-1428_2"
